"Time (s)","Acceleration x (m/s^2)","Acceleration y (m/s^2)","Acceleration z (m/s^2)"
0.000000000E0,-1.125226393E-1,1.623198986E0,9.291497231E0
2.439688000E-3,-5.985246971E-2,1.639957666E0,9.303467751E0
4.878594000E-3,-1.436459273E-2,1.659110427E0,9.329803467E0
7.316875000E-3,7.182296365E-3,1.671080828E0,9.334590912E0
9.756250000E-3,-9.576394223E-3,1.663898587E0,9.372897148E0
1.219557300E-2,-4.788197111E-3,1.685445547E0,9.404020309E0
1.465864600E-2,-9.576394223E-3,1.618410707E0,9.437537193E0
1.714635400E-2,-9.576394223E-3,1.618410707E0,9.437537193E0
1.963406300E-2,-1.915278845E-2,1.604046106E0,9.437537193E0
2.209739600E-2,-1.915278845E-2,1.565740585E0,9.415989876E0
2.456072900E-2,-1.675869152E-2,1.534617305E0,9.377684593E0
2.704843800E-2,-1.675869152E-2,1.534617305E0,9.377684593E0
2.953614600E-2,1.436459273E-2,1.537011385E0,9.396838188E0
3.202369800E-2,3.112328239E-2,1.546587706E0,9.413596153E0
3.451099000E-2,3.112328239E-2,1.556164145E0,9.432748795E0
3.700369800E-2,4.788197577E-2,1.532223225E0,9.425566673E0
3.950062500E-2,3.112328239E-2,1.527434945E0,9.406414032E0
4.199552100E-2,-9.576394223E-3,1.525040865E0,9.281921387E0
4.448875000E-2,-2.633508667E-2,1.556164145E0,9.226857185E0
4.698057300E-2,-1.005521491E-1,1.584893346E0,9.224461555E0
4.947140700E-2,-1.963160932E-1,1.592075586E0,9.277132988E0
5.196135400E-2,-2.968682647E-1,1.582499266E0,9.372897148E0
5.445046900E-2,-3.423561156E-1,1.558558226E0,9.423172951E0
5.693895900E-2,-3.710853159E-1,1.527434945E0,9.439930916E0
5.942687500E-2,-3.255974352E-1,1.529829144E0,9.471055031E0
6.191437500E-2,-3.519325256E-1,1.498705864E0,9.461478233E0
6.440135400E-2,-3.495384157E-1,1.443641543E0,9.526119232E0
6.688796900E-2,-2.992623448E-1,1.412518263E0,9.581183434E0
6.937421900E-2,-2.370157838E-1,1.357453942E0,9.607518196E0
7.186015700E-2,-1.795574129E-1,1.309571981E0,9.633852959E0
7.433125000E-2,-1.268872321E-1,1.244931340E0,9.626670837E0
7.677489600E-2,-7.182296365E-2,1.187473059E0,9.609911919E0
7.920609400E-2,4.788197111E-3,1.134802699E0,9.626670837E0
8.163729200E-2,3.112328239E-2,1.074950337E0,9.626670837E0
8.406776100E-2,9.576395154E-2,1.065374017E0,9.638642311E0
8.649817700E-2,1.580105126E-1,1.067767978E0,9.643429756E0
8.892937500E-2,2.226511836E-1,1.067767978E0,9.657793999E0
9.136057300E-2,2.346216738E-1,1.084526777E0,9.643429756E0
9.379104200E-2,2.250452787E-1,1.115650058E0,9.657793999E0
9.622145900E-2,1.867396981E-1,1.156349778E0,9.631459236E0
9.865265700E-2,2.154688835E-1,1.194655299E0,9.566819191E0
1.010838540E-1,2.034983933E-1,1.232960820E0,9.468661308E0
1.035143230E-1,1.867396981E-1,1.311966181E0,9.365714073E0
1.059447400E-1,1.508282125E-1,1.321542501E0,9.325015068E0
1.083759900E-1,1.029462516E-1,1.364636302E0,9.303467751E0
1.108071880E-1,5.027607456E-2,1.407730103E0,9.320225716E0
1.132376040E-1,5.267017335E-2,1.398153663E0,9.317831993E0
1.156680210E-1,5.985246971E-2,1.434065104E0,9.344166756E0
1.180992710E-1,5.745837092E-2,1.429276943E0,9.406414032E0
1.205304690E-1,3.830557689E-2,1.422094584E0,9.413596153E0
1.229608860E-1,-1.675869152E-2,1.412518263E0,9.471055031E0
1.253913020E-1,-1.675869152E-2,1.369424462E0,9.547665596E0
1.278225520E-1,-2.154688910E-2,1.388577223E0,9.612305641E0
1.302537500E-1,-3.112328239E-2,1.367030382E0,9.681735039E0
1.326841670E-1,-9.576394223E-3,1.350271702E0,9.753558159E0
1.351145840E-1,-1.675869152E-2,1.297601461E0,9.787075996E0
1.375458340E-1,1.915278845E-2,1.307177901E0,9.873263359E0
1.399770320E-1,8.379345387E-2,1.280842900E0,9.866081238E0
1.424074480E-1,1.580105126E-1,1.225778461E0,9.873263359E0
1.448378650E-1,2.513803840E-1,1.218596220E0,9.811017036E0
1.472691150E-1,3.591148257E-1,1.173108339E0,9.779892921E0
1.497003130E-1,4.572728872E-1,1.165926099E0,9.720041275E0
1.521307290E-1,5.650073290E-1,1.173108339E0,9.708069801E0
1.545611460E-1,6.081010699E-1,1.175502539E0,9.710465431E0
1.569923960E-1,6.272538900E-1,1.134802699E0,9.727223396E0
1.594235940E-1,6.631653905E-1,1.175502539E0,9.760741234E0
1.618540110E-1,6.775299311E-1,1.175502539E0,9.844533920E0
1.642844270E-1,6.871063113E-1,1.175502539E0,9.933115959E0
1.667156770E-1,7.828702927E-1,1.180290580E0,1.001690865E1
1.691468750E-1,9.169397950E-1,1.130014658E0,1.001930332E1
1.715772920E-1,1.115650058E0,9.121516347E-1,1.016294861E1
1.740077090E-1,1.213808179E0,5.578250289E-1,1.026350117E1
1.764389590E-1,1.084526777E0,1.460400373E-1,1.047418213E1
1.788701570E-1,9.097574949E-1,-2.753213346E-1,1.060346317E1
1.813006250E-1,5.099430084E-1,-5.889483094E-1,1.061782837E1
1.837310420E-1,-3.112328239E-2,-8.259640336E-1,1.063219261E1
1.861622400E-1,-3.136269450E-1,-9.097574949E-1,1.068007469E1
1.885934380E-1,-5.506426692E-1,-9.648218155E-1,1.070162106E1
1.910239070E-1,-7.924466729E-1,-9.384866953E-1,1.068007469E1
1.934543230E-1,-1.060585737E0,-8.379345536E-1,1.069683266E1
1.958855210E-1,-1.314360261E0,-6.942886114E-1,1.076626205E1
1.983167190E-1,-1.551375985E0,-4.788197577E-1,1.086681366E1
2.007471880E-1,-1.738115788E0,-2.322275788E-1,1.095060825E1
2.031776040E-1,-1.872185230E0,-4.788197111E-3,1.105355358E1
2.056088020E-1,-1.929643631E0,2.274393737E-1,1.108707142E1
2.080400520E-1,-1.934431791E0,4.620610774E-1,1.118044090E1
2.104704690E-1,-1.924855351E0,7.014709115E-1,1.129535770E1
2.129008860E-1,-1.874579430E0,9.313044548E-1,1.141266918E1
2.153321360E-1,-1.757268548E0,1.098891377E0,1.150364399E1
2.177633340E-1,-1.596863866E0,1.232960820E0,1.162813759E1
2.201937500E-1,-1.388577223E0,1.355059862E0,1.181008911E1
2.226241670E-1,-1.170714259E0,1.398153663E0,1.199204063E1
2.250554170E-1,-8.163877130E-1,1.402941823E0,1.215723324E1
2.274866150E-1,-4.500905573E-1,1.338301301E0,1.236312580E1
2.299170320E-1,-3.830557689E-2,1.218596220E0,1.249958992E1
2.323474480E-1,3.878439963E-1,1.051009417E0,1.265520573E1
2.347786980E-1,7.708998322E-1,8.044171929E-1,1.278688145E1
2.372098960E-1,1.106073618E0,4.764256477E-1,1.286588669E1
2.396403130E-1,1.398153663E0,1.125226393E-1,1.293531609E1
2.420707290E-1,1.611228466E0,-3.088387549E-1,1.288982773E1
2.445019790E-1,1.764450788E0,-7.445647120E-1,1.279645824E1
2.469331770E-1,1.881761670E0,-1.146773219E0,1.264084053E1
2.493635940E-1,1.900914431E0,-1.505888104E0,1.237270164E1
2.517940110E-1,1.900914431E0,-1.809938669E0,1.211892796E1
2.542252610E-1,1.824303269E0,-2.034983873E0,1.176938915E1
2.566564590E-1,1.750086069E0,-2.212147236E0,1.152758503E1
2.590868750E-1,1.647140026E0,-2.372551680E0,1.122592926E1
2.615172920E-1,1.551375985E0,-2.458739519E0,1.089075470E1
2.639485420E-1,1.362242103E0,-2.506621599E0,1.056994629E1
2.663797400E-1,1.197049379E0,-2.540138721E0,1.022519588E1
2.688101570E-1,9.815804958E-1,-2.552109241E0,9.897204399E0
2.712405730E-1,7.254119515E-1,-2.535350561E0,9.597942352E0
2.736718230E-1,4.716374576E-1,-2.461133480E0,9.265162468E0
2.761030730E-1,2.154688835E-1,-2.382128239E0,8.985053062E0
2.785334380E-1,-6.942886859E-2,-2.283970356E0,8.743248940E0
2.809638540E-1,-3.495384157E-1,-2.195388556E0,8.432016373E0
2.833951040E-1,-6.009188294E-1,-2.054136753E0,8.175847054E0
2.858263540E-1,-8.187817335E-1,-1.888943911E0,7.938831329E0
2.882567190E-1,-9.791863561E-1,-1.800362229E0,7.759274006E0
2.906871360E-1,-1.151561499E0,-1.671080828E0,7.653933525E0
2.931183860E-1,-1.307177901E0,-1.522646785E0,7.531834602E0
2.955496360E-1,-1.386183143E0,-1.390971422E0,7.400158882E0
2.979800000E-1,-1.446035624E0,-1.261690021E0,7.333124638E0
3.004104170E-1,-1.446035624E0,-1.132408738E0,7.333124638E0
3.028416670E-1,-1.429276943E0,-9.887627959E-1,7.297213078E0
3.052729170E-1,-1.333513021E0,-8.666637540E-1,7.175114155E0
3.077032820E-1,-1.130014658E0,-7.852643728E-1,7.053015232E0
3.101336980E-1,-9.097574949E-1,-7.421706319E-1,6.827969551E0
3.125649480E-1,-6.583771110E-1,-7.661116123E-1,6.612500668E0
3.149961980E-1,-5.674013495E-1,-7.469587922E-1,6.521524906E0
3.174265630E-1,-5.578250289E-1,-7.876585126E-1,6.509554386E0
3.198569790E-1,-5.650073290E-1,-7.589293122E-1,6.610106468E0
3.222882290E-1,-5.554309487E-1,-7.756879926E-1,6.784875870E0
3.247194790E-1,-4.764256477E-1,-7.948408127E-1,6.866274834E0
3.271498440E-1,-3.686912060E-1,-7.589293122E-1,6.938097954E0
3.295802610E-1,-2.322275788E-1,-6.320420504E-1,6.997950554E0
3.320115110E-1,-1.508282125E-1,-5.243076086E-1,7.017103672E0
3.344427610E-1,-4.309377819E-2,-4.453023672E-1,6.954856873E0
3.368731250E-1,1.077344418E-1,-3.806616962E-1,6.969221592E0
3.393035420E-1,3.064446151E-1,-3.543266356E-1,6.969221592E0
3.417347920E-1,4.476964772E-1,-3.830558062E-1,6.804028511E0
3.441660420E-1,6.607712507E-1,-3.830558062E-1,6.631653309E0
3.465964070E-1,8.283581734E-1,-4.022085965E-1,6.552648544E0
3.490268230E-1,9.576395154E-1,-4.476964772E-1,6.490401268E0
3.514580730E-1,1.031856537E0,-4.740315676E-1,6.418578625E0
3.538893230E-1,1.098891377E0,-4.644551575E-1,6.313238621E0
3.563196880E-1,1.134802699E0,-4.644551575E-1,6.138469219E0
3.587501040E-1,1.199443460E0,-4.716374576E-1,6.013976097E0
3.611813540E-1,1.261690021E0,-4.213613868E-1,5.899059296E0
3.636126040E-1,1.345483541E0,-3.926321864E-1,5.786536694E0
3.660430210E-1,1.453217983E0,-3.447502255E-1,5.693167210E0
3.684734380E-1,1.515464544E0,-3.136269450E-1,5.599796772E0
3.709046360E-1,1.649533987E0,-2.872918546E-1,5.602190971E0
3.733358860E-1,1.738115788E0,-2.250452787E-1,5.561491489E0
3.757662500E-1,1.879367471E0,-1.939219981E-1,5.544732571E0
3.781966670E-1,1.970343232E0,-1.651928127E-1,5.525579929E0
3.806279170E-1,2.070895433E0,-1.197049394E-1,5.537550449E0
3.830591670E-1,2.152294636E0,-8.139935881E-2,5.468121529E0
3.854895320E-1,2.245664597E0,-5.267017335E-2,5.453756809E0
3.879199480E-1,2.406069279E0,-6.224656478E-2,5.410663128E0
3.903511980E-1,2.530562401E0,-5.027607456E-2,5.422633648E0
3.927824480E-1,2.592808962E0,-3.351738304E-2,5.482485771E0
3.952128650E-1,2.599991322E0,-4.548787326E-2,5.506426811E0
3.976432820E-1,2.561685801E0,-2.872918546E-2,5.583038330E0
4.000744790E-1,2.518591881E0,9.576394223E-3,5.647678852E0
4.025057290E-1,2.485074520E0,2.154688910E-2,5.697955132E0
4.049360940E-1,2.461133480E0,3.112328239E-2,5.791325092E0
4.073665110E-1,2.465921640E0,1.005521491E-1,5.906241417E0
4.097977610E-1,2.506621599E0,1.364636272E-1,6.100163460E0
4.122290110E-1,2.556897402E0,1.915279031E-1,6.282114983E0
4.146593750E-1,2.614355803E0,2.561685741E-1,6.492795944E0
4.170897920E-1,2.690967083E0,2.992623448E-1,6.765723228E0
4.195210420E-1,2.772366285E0,3.471443057E-1,6.988374233E0
4.219522920E-1,2.827430487E0,3.639029860E-1,7.201448917E0
4.243826570E-1,2.906435966E0,4.117850065E-1,7.349883080E0
4.268130730E-1,2.942347288E0,4.405141473E-1,7.479164600E0
4.292443230E-1,2.973470688E0,4.860020280E-1,7.591687202E0
4.316755730E-1,2.992623568E0,5.386722088E-1,7.615627766E0
4.341059380E-1,2.937559366E0,5.530368090E-1,7.622810364E0
4.365363540E-1,2.916012287E0,5.937365294E-1,7.627598286E0
4.389676040E-1,2.963894367E0,6.344361901E-1,7.663509846E0
4.413988540E-1,3.074022770E0,6.176775098E-1,7.689845085E0
4.438292190E-1,3.232033253E0,5.697954893E-1,7.708998203E0
4.462596360E-1,3.413984776E0,5.051548481E-1,7.701815605E0
4.486908860E-1,3.624665499E0,4.788197577E-1,7.699421406E0
4.511221360E-1,3.720429420E0,4.692433476E-1,7.622810364E0
4.535525000E-1,3.801828861E0,4.883961678E-1,7.582110405E0
4.559829170E-1,3.852104902E0,4.883961678E-1,7.543805122E0
4.584141670E-1,3.974204063E0,4.979725182E-1,7.517469883E0
4.608454170E-1,4.125032425E0,5.075489283E-1,7.531834602E0
4.632757820E-1,4.268678188E0,4.716374576E-1,7.527046680E0
4.657061980E-1,4.436264992E0,4.764256477E-1,7.531834602E0
4.681374480E-1,4.613428593E0,4.429082870E-1,7.548593521E0
4.705686980E-1,4.783409595E0,4.860020280E-1,7.570139885E0
4.729990630E-1,4.950995922E0,5.147312284E-1,7.548593521E0
4.754294790E-1,5.149706364E0,5.362781286E-1,7.553381443E0
4.778607290E-1,5.381934166E0,5.578250289E-1,7.560564041E0
4.802919790E-1,5.590220451E0,5.817660093E-1,7.553381443E0
4.827223440E-1,5.786536694E0,5.554309487E-1,7.591687202E0
4.851527610E-1,5.954123497E0,5.793718696E-1,7.622810364E0
4.875840110E-1,6.085799217E0,5.913423896E-1,7.701815605E0
4.900152610E-1,6.191139698E0,5.626131892E-1,7.783215046E0
4.924456250E-1,6.231839180E0,5.674013495E-1,7.936437607E0
4.948760420E-1,6.284509182E0,5.410662889E-1,8.065718651E0
4.973072920E-1,6.315632343E0,5.530368090E-1,8.183029175E0
4.997385420E-1,6.294085503E0,5.290958285E-1,8.238094330E0
5.021689070E-1,6.286903381E0,5.458545089E-1,8.269216537E0
5.045993230E-1,6.310844421E0,6.033128500E-1,8.372163773E0
5.070305730E-1,6.236627102E0,6.966827512E-1,8.398497581E0
5.094618230E-1,6.143257618E0,7.852643728E-1,8.432016373E0
5.118921880E-1,6.028340340E0,8.714519143E-1,8.460744858E0
5.143226040E-1,6.207898140E0,1.048615217E0,8.558902740E0
5.167538540E-1,6.200716019E0,1.132408738E0,8.499051094E0
5.191851040E-1,6.033129215E0,1.240143180E0,8.405680656E0
5.216154690E-1,5.875118732E0,1.151561499E0,8.314704895E0
5.240458860E-1,5.951729298E0,8.379345536E-1,8.199788094E0
5.264771360E-1,5.733866692E0,8.427227736E-1,8.168664932E0
5.289083340E-1,5.633314610E0,6.583771110E-1,8.197394371E0
5.313387500E-1,5.494456291E0,5.458545089E-1,8.269216537E0
5.337691670E-1,5.307716846E0,5.051548481E-1,8.321887016E0
5.362004170E-1,5.132947445E0,4.764256477E-1,8.379345894E0
5.386316150E-1,4.970149040E0,4.764256477E-1,8.355404854E0
5.410620320E-1,4.828896999E0,5.075489283E-1,8.305128098E0
5.434924480E-1,4.699615955E0,5.817660093E-1,8.233305931E0
5.459236980E-1,4.508088112E0,6.296479702E-1,8.197394371E0
5.483548960E-1,4.347683430E0,6.248597503E-1,8.154300690E0
5.507853130E-1,4.168126106E0,6.176775098E-1,8.077689171E0
5.532157290E-1,3.988568544E0,6.823181510E-1,8.068113327E0
5.556469790E-1,3.799434662E0,6.823181510E-1,7.953196049E0
5.580781770E-1,3.660577059E0,7.469587922E-1,7.835885048E0
5.605085940E-1,3.588753939E0,7.469587922E-1,7.658721924E0
5.629390110E-1,3.560024738E0,7.589293122E-1,7.443253040E0
5.653702610E-1,3.528901577E0,8.499050736E-1,7.323547840E0
5.678014590E-1,3.447502136E0,8.786342740E-1,7.208631516E0
5.702318750E-1,3.445107937E0,8.906047344E-1,7.163143635E0
5.726622920E-1,3.478625536E0,9.600335956E-1,7.143990517E0
5.750934900E-1,3.646212578E0,9.648218155E-1,7.036255836E0
5.775247400E-1,3.804223061E0,8.738460541E-1,6.921339512E0
5.799551570E-1,3.933504343E0,7.876585126E-1,6.792057991E0
5.823855730E-1,4.108273506E0,6.918945909E-1,6.672352791E0
5.848167710E-1,4.266283989E0,5.889483094E-1,6.626865387E0
5.872480210E-1,4.333318710E0,4.117850065E-1,6.641230106E0
5.896784380E-1,4.354865551E0,1.795574129E-1,6.713053226E0
5.921088540E-1,4.522452354E0,-3.591148183E-2,6.859093189E0
5.945400520E-1,4.711586475E0,-2.202570736E-1,6.976403713E0
5.969713020E-1,5.032395363E0,-3.519325256E-1,7.124837875E0
5.994016670E-1,5.326869488E0,-6.033128500E-1,7.364247322E0
6.018320840E-1,5.542338371E0,-8.522991538E-1,7.711391926E0
6.042633340E-1,5.717107773E0,-1.084526777E0,8.075295448E0
6.066945840E-1,5.958911896E0,-1.256901860E0,8.350616455E0
6.091249480E-1,6.291691303E0,-1.333513021E0,8.494261742E0
6.115553650E-1,6.641230106E0,-1.381394982E0,8.604391098E0
6.139866150E-1,6.957251072E0,-1.426882863E0,8.623543739E0
6.164178650E-1,7.256513596E0,-1.426882863E0,8.578056335E0
6.188482290E-1,7.531834602E0,-1.400547743E0,8.436803818E0
6.212786460E-1,7.689845085E0,-1.347877622E0,8.324281693E0
6.237098960E-1,7.764061928E0,-1.180290580E0,8.132753372E0
6.261411460E-1,7.883767128E0,-9.815804958E-1,7.895737648E0
6.285715110E-1,7.998683929E0,-7.541411519E-1,7.689845085E0
6.310019270E-1,7.957983971E0,-4.692433476E-1,7.656328201E0
6.334331770E-1,7.924467087E0,-1.532223076E-1,7.689845085E0
6.358643750E-1,7.838279724E0,1.699810177E-1,7.850249767E0
6.382947920E-1,7.680268764E0,4.476964772E-1,8.058536530E0
6.407252090E-1,7.407341480E0,6.847122312E-1,8.223729134E0
6.431564590E-1,7.093714714E0,8.499050736E-1,8.329069138E0
6.455876570E-1,6.669959068E0,1.060585737E0,8.307522774E0
6.480180730E-1,6.207898140E0,1.106073618E0,7.869402409E0
6.504484900E-1,5.664437294E0,9.504572153E-1,7.278059959E0
6.528797400E-1,5.243076324E0,9.911568761E-1,7.206236839E0
6.553109380E-1,4.960572720E0,1.292813420E0,7.467194080E0
6.577413540E-1,4.623004436E0,1.276054621E0,7.337912560E0
6.601717710E-1,4.453023434E0,1.072556257E0,6.957251072E0
6.626030210E-1,4.472176552E0,8.092053533E-1,6.519131184E0
6.650342190E-1,4.709191799E0,8.044171929E-1,5.836812496E0
6.674646360E-1,4.871991158E0,8.642696142E-1,5.348416328E0
6.698950520E-1,4.939025402E0,9.384866953E-1,4.991695881E0
6.723262500E-1,4.989302158E0,9.384866953E-1,4.766650677E0
6.747575000E-1,5.068306923E0,9.360926151E-1,4.860020638E0
6.771879170E-1,5.154494286E0,8.977869749E-1,5.221529484E0
6.796183340E-1,5.267016888E0,7.685056925E-1,5.630920410E0
6.820495320E-1,5.432209969E0,5.985246897E-1,6.006793976E0
6.844807820E-1,5.595008850E0,4.022085965E-1,6.207898140E0
6.869111460E-1,5.669226170E0,1.843456030E-1,6.430549145E0
6.893415630E-1,5.681196690E0,-3.591148183E-2,6.997950554E0
6.917728130E-1,5.932576656E0,-2.513803840E-1,7.493528843E0
6.942040630E-1,6.188745499E0,-5.267017484E-1,7.855038166E0
6.966344270E-1,6.409002304E0,-6.559830904E-1,8.240488052E0
6.990648440E-1,6.662776947E0,-7.397764921E-1,8.661849022E0
7.014960940E-1,6.883034229E0,-8.235700130E-1,9.006599426E0
7.039272920E-1,7.091320515E0,-8.642696142E-1,9.308256149E0
7.063577090E-1,7.270877838E0,-9.456689954E-1,9.688918114E0
7.087881250E-1,7.467194080E0,-1.000733256E0,1.007676220E1
7.112193750E-1,7.646751404E0,-1.043827057E0,1.048615265E1
7.136505730E-1,7.831097126E0,-1.067767978E0,1.085723782E1
7.160809900E-1,7.962772369E0,-1.039038897E0,1.112537670E1
7.185114070E-1,8.113600731E0,-1.007915616E0,1.137675667E1
7.209426570E-1,8.295552254E0,-1.041432977E0,1.158743763E1
7.233738540E-1,8.508626938E0,-1.041432977E0,1.184121227E1
7.258042710E-1,8.664242744E0,-1.019886017E0,1.214286900E1
7.282346880E-1,8.803100586E0,-9.959450364E-1,1.243973732E1
7.306659380E-1,8.941959381E0,-9.767923355E-1,1.271505833E1
7.330971360E-1,8.999417305E0,-9.528512955E-1,1.302150345E1
7.355275520E-1,9.059269905E0,-9.600335956E-1,1.329442978E1
7.379579690E-1,9.020963669E0,-9.935510159E-1,1.354581070E1
7.403891670E-1,9.008994102E0,-1.010309696E0,1.374930859E1
7.428204170E-1,8.939564705E0,-1.041432977E0,1.394083691E1
7.452507820E-1,8.783947945E0,-1.051009417E0,1.403660107E1
7.476811980E-1,8.628332138E0,-1.019886017E0,1.413475895E1
7.501124480E-1,8.415257454E0,-9.935510159E-1,1.417785263E1
7.525436980E-1,8.221335411E0,-9.313044548E-1,1.414433479E1
7.549740630E-1,7.986713409E0,-8.882106543E-1,1.411800003E1
7.574044790E-1,7.771244526E0,-8.163877130E-1,1.397196007E1
7.598357290E-1,7.594080925E0,-7.445647120E-1,1.381394958E1
7.622669270E-1,7.448040962E0,-7.182296515E-1,1.364636326E1
7.646973440E-1,7.263695717E0,-7.134414315E-1,1.334949493E1
7.671277610E-1,7.139202595E0,-7.206237316E-1,1.309093189E1
7.695590110E-1,6.995556355E0,-8.092053533E-1,1.277251720E1
7.719902090E-1,6.861486912E0,-9.073634148E-1,1.244452477E1
7.744206250E-1,6.725023270E0,-9.696099758E-1,1.212611008E1
7.768510420E-1,6.564619064E0,-1.022280216E0,1.176699543E1
7.792822920E-1,6.401820183E0,-1.084526777E0,1.143421555E1
7.817134900E-1,6.277327061E0,-1.163532019E0,1.107031345E1
7.841439070E-1,6.176774979E0,-1.204231620E0,1.076147366E1
7.865743230E-1,6.064251900E0,-1.242537260E0,1.042390633E1
7.890055210E-1,6.035522938E0,-1.335907102E0,1.006957912E1
7.914367710E-1,5.987640858E0,-1.405336022E0,9.727223396E0
7.938671360E-1,5.970882416E0,-1.568134665E0,9.411202431E0
7.962975520E-1,6.021158695E0,-1.721356988E0,9.205309868E0
7.987288020E-1,6.076222420E0,-1.843456030E0,9.056876183E0
8.011600520E-1,6.114528179E0,-1.939219952E0,8.925200462E0
8.035904170E-1,6.200716019E0,-2.008648872E0,8.819860458E0
8.060208340E-1,6.282114983E0,-2.042166233E0,8.669032097E0
8.084520840E-1,6.387455463E0,-2.046954393E0,8.487079620E0
8.108833340E-1,6.507160664E0,-2.001466513E0,8.374557495E0
8.133136980E-1,6.701082706E0,-1.955978632E0,8.300340652E0
8.157441150E-1,6.871063709E0,-1.965555072E0,8.257246971E0
8.181753650E-1,7.064985275E0,-1.898520231E0,8.264429092E0
8.206065630E-1,7.239754677E0,-1.908096790E0,8.364980698E0
8.230369790E-1,7.414524078E0,-1.922461271E0,8.470320702E0
8.254673960E-1,7.541410923E0,-1.975131512E0,8.597208977E0
8.278986460E-1,7.661116123E0,-2.001466513E0,8.707337379E0
8.303298440E-1,7.711391926E0,-2.054136753E0,8.800706863E0
8.327602610E-1,7.747303486E0,-2.133141994E0,8.872529984E0
8.351906770E-1,7.764061928E0,-2.197782755E0,8.929987907E0
8.376218750E-1,7.682662964E0,-2.295940638E0,8.982658386E0
8.400531250E-1,7.606051445E0,-2.343822718E0,9.028145790E0
8.424834900E-1,7.474376678E0,-2.453951359E0,9.006599426E0
8.449139070E-1,7.366641998E0,-2.528168201E0,8.934777260E0
8.473451570E-1,7.282848358E0,-2.628720522E0,8.819860458E0
8.497764070E-1,7.187084675E0,-2.729272604E0,8.700155258E0
8.522067710E-1,7.153566837E0,-2.832218647E0,8.568478584E0
8.546371880E-1,7.076955795E0,-2.925588846E0,8.436803818E0
8.570684380E-1,6.959644794E0,-3.004594088E0,8.333857536E0
8.594996360E-1,6.863881111E0,-3.102751970E0,8.218940735E0
8.619300520E-1,6.732205391E0,-3.188939571E0,8.053748131E0
8.643604690E-1,6.662776947E0,-3.289491653E0,7.799973488E0
8.667917190E-1,6.598135948E0,-3.390043736E0,7.539017200E0
8.692229170E-1,6.614894867E0,-3.485807657E0,7.242148399E0
8.716533340E-1,6.612500668E0,-3.617483139E0,6.935704231E0
8.740837500E-1,6.614894867E0,-3.713247299E0,6.610106468E0
8.765149480E-1,6.636441708E0,-3.780282021E0,6.353938103E0
8.789461980E-1,6.660382271E0,-3.818587542E0,6.085799217E0
8.813766150E-1,6.720234871E0,-3.837740183E0,5.832024574E0
8.838070320E-1,6.780087471E0,-3.876045704E0,5.623737812E0
8.862382290E-1,6.801634312E0,-3.835346222E0,5.475304127E0
8.886694790E-1,6.844728470E0,-3.825769663E0,5.341234684E0
8.910998440E-1,6.842333794E0,-3.797040462E0,5.207164764E0
8.935302610E-1,6.890215874E0,-3.816193581E0,5.087460041E0
8.959615110E-1,6.899792671E0,-3.813799143E0,4.972542763E0
8.983927090E-1,6.966827393E0,-3.811405182E0,4.843262196E0
9.008231250E-1,6.962038994E0,-3.861681223E0,4.709191799E0
9.032535420E-1,6.916551590E0,-3.933504343E0,4.587092876E0
9.056847920E-1,6.966827393E0,-4.012509346E0,4.512876034E0
9.081159900E-1,6.918945312E0,-4.053209305E0,4.402747631E0
9.105464070E-1,6.988374233E0,-4.127426147E0,4.311771870E0
9.129768230E-1,6.962038994E0,-4.196855068E0,4.156155586E0
9.154080730E-1,6.966827393E0,-4.220796108E0,4.012509346E0
9.178392710E-1,7.019497395E0,-4.249525547E0,3.866469383E0
9.202696360E-1,7.084137917E0,-4.295012951E0,3.749158859E0
9.227000520E-1,7.143990517E0,-4.302195549E0,3.672547579E0
9.251313020E-1,7.220602036E0,-4.314166069E0,3.691700220E0
9.275625520E-1,7.371429920E0,-4.338107109E0,3.816193581E0
9.299929170E-1,7.460011482E0,-4.376412392E0,3.955051184E0
9.324233340E-1,7.606051445E0,-4.421900272E0,4.146578789E0
9.348545840E-1,7.728150845E0,-4.476964474E0,4.366836071E0
9.372857820E-1,7.859826088E0,-4.567940712E0,4.512876034E0
9.397161980E-1,7.922072887E0,-4.577517033E0,4.642157555E0
9.421466150E-1,7.998683929E0,-4.678069115E0,4.697221279E0
9.445778650E-1,8.118389130E0,-4.737921715E0,4.754680157E0
9.470090630E-1,8.183029175E0,-4.838473320E0,4.740315437E0
9.494394790E-1,8.259640694E0,-4.893537998E0,4.685251236E0
9.518698960E-1,8.362586975E0,-5.013243198E0,4.577517033E0
9.543010940E-1,8.372163773E0,-5.058730602E0,4.512876034E0
9.567323440E-1,8.396103859E0,-5.094642162E0,4.409930229E0
9.591627090E-1,8.376951218E0,-5.125765324E0,4.268678188E0
9.615931250E-1,8.336252213E0,-5.144917965E0,4.172914028E0
9.640243750E-1,8.252458572E0,-5.159283161E0,4.079544067E0
9.664555730E-1,8.156694412E0,-5.144917965E0,3.993356705E0
9.688859900E-1,8.041777611E0,-5.116189003E0,4.024479866E0
9.713164070E-1,7.912496567E0,-5.120976925E0,4.043632984E0
9.737476570E-1,7.847855568E0,-5.135342121E0,4.101091385E0
9.761788540E-1,7.687450886E0,-5.130553722E0,4.299801350E0
9.786092710E-1,7.606051445E0,-5.101824284E0,4.390777111E0
9.810396880E-1,7.515076160E0,-5.092247963E0,4.520058632E0
9.834708860E-1,7.524652481E0,-4.922266960E0,4.498511314E0
9.859021360E-1,7.455223560E0,-4.860020638E0,4.297407627E0
9.883325000E-1,7.227784157E0,-4.807350636E0,4.295012951E0
9.907629170E-1,7.050621033E0,-4.771439075E0,4.290225029E0
9.931941670E-1,6.918945312E0,-4.654128075E0,4.137002945E0
9.956254170E-1,6.815999031E0,-4.615822315E0,4.019691944E0
9.980557820E-1,6.765723228E0,-4.551181316E0,3.835346222E0
1.000486198E0,6.739387989E0,-4.534422874E0,3.758734941E0
1.002917448E0,6.744175911E0,-4.532029152E0,3.689306259E0
1.005348646E0,6.835152149E0,-4.541605473E0,3.674941540E0
1.007779063E0,6.945280552E0,-4.589487553E0,3.703670740E0
1.010209479E0,6.974009514E0,-4.644551277E0,3.746764421E0
1.012640677E0,7.038650513E0,-4.668492317E0,3.823375702E0
1.015071927E0,7.163143635E0,-4.678069115E0,3.940686464E0
1.017502344E0,7.258907318E0,-4.721162319E0,4.048420906E0
1.019932761E0,7.373824120E0,-4.721162319E0,4.249525547E0
1.022363959E0,7.440858841E0,-4.766650677E0,4.438659191E0
1.024795209E0,7.522258282E0,-4.816926479E0,4.611033916E0
1.027225573E0,7.613234043E0,-4.816926479E0,4.838473320E0
1.029655990E0,7.728150845E0,-4.804955959E0,4.984513283E0
1.032087240E0,7.694633484E0,-4.790591717E0,5.089853764E0
1.034518438E0,7.603657722E0,-4.781014919E0,5.231105804E0
1.036948854E0,7.632387161E0,-4.759468555E0,5.389116287E0
1.039379271E0,7.649145603E0,-4.752285957E0,5.396298409E0
1.041810521E0,7.663509846E0,-4.757073879E0,5.393904686E0
1.044241719E0,7.589293003E0,-4.730739117E0,5.403481007E0
1.046672136E0,7.503105640E0,-4.711586475E0,5.434604168E0
1.049102552E0,7.421706200E0,-4.725951195E0,5.422633648E0
1.051533750E0,7.273272038E0,-4.778621197E0,5.477697849E0
1.053965000E0,7.146385193E0,-4.776226997E0,5.384327888E0
1.056395365E0,7.024285316E0,-4.802562237E0,5.405875206E0
1.058825782E0,6.883034229E0,-4.814532280E0,5.269411564E0
1.061257032E0,6.787270069E0,-4.845655918E0,5.204770565E0
1.063688229E0,6.725023270E0,-4.915084362E0,5.101824284E0
1.066118646E0,6.736993790E0,-5.030001640E0,5.085065365E0
1.068549063E0,6.770511627E0,-5.135342121E0,5.025213718E0
1.070980261E0,6.741782188E0,-5.274199486E0,4.967754841E0
1.073411511E0,6.689112186E0,-5.365175724E0,4.895932198E0
1.075841875E0,6.468854904E0,-5.520791531E0,4.955784321E0
1.078272292E0,6.315632343E0,-5.757807732E0,5.116189003E0
1.080703542E0,6.373091221E0,-5.882300377E0,5.149706364E0
1.083134792E0,6.485613346E0,-5.937365055E0,5.061124802E0
1.085565157E0,6.612500668E0,-5.925394535E0,4.984513283E0
1.087995573E0,6.763329029E0,-5.853571415E0,4.903113842E0
1.090426823E0,6.921339512E0,-5.683590412E0,4.778621197E0
1.092858021E0,7.038650513E0,-5.482485771E0,4.637369633E0
1.095288438E0,6.983585835E0,-5.211953163E0,4.457811832E0
1.097718854E0,7.021891594E0,-4.936631680E0,4.194460869E0
1.100150052E0,7.232572556E0,-4.721162319E0,3.952656984E0
1.102581302E0,7.383400440E0,-4.534422874E0,3.794646502E0
1.105011667E0,7.519864082E0,-4.359653950E0,3.696488619E0
1.107442084E0,7.632387161E0,-4.249525547E0,3.708458900E0
1.109873334E0,7.711391926E0,-4.156155586E0,3.689306259E0
1.112304584E0,7.768850327E0,-4.065179825E0,3.727611780E0
1.114734948E0,7.792791367E0,-4.010115623E0,3.830558062E0
1.117165365E0,7.821520329E0,-3.976598024E0,3.950263023E0
1.119596615E0,7.814338684E0,-3.969415665E0,4.000538826E0
1.122027813E0,7.768850327E0,-3.998145103E0,4.067573547E0
1.124458229E0,7.725756645E0,-4.036450386E0,4.177702427E0
1.126888646E0,7.644357681E0,-4.074756145E0,4.239949226E0
1.129319844E0,7.577322483E0,-4.122638226E0,4.273466587E0
1.131751094E0,7.505499363E0,-4.192067146E0,4.443447590E0
1.134181459E0,7.464799881E0,-4.263889790E0,4.591881275E0
1.136611875E0,7.440858841E0,-4.263889790E0,4.642157555E0
1.139043125E0,7.491135120E0,-4.227978706E0,4.773832798E0
1.141474323E0,7.718574524E0,-3.842528582E0,4.450629711E0
1.143904740E0,7.701815605E0,-3.725217819E0,4.414718151E0
1.146335157E0,7.646751404E0,-3.734793901E0,4.201643467E0
1.148766407E0,7.591687202E0,-3.763523340E0,4.103485107E0
1.151197604E0,7.613234043E0,-3.892804384E0,4.007721424E0
1.153628021E0,7.661116123E0,-4.043632984E0,3.832952023E0
1.156058438E0,7.742515564E0,-4.227978706E0,3.691700220E0
1.158489636E0,7.883767128E0,-4.472176552E0,3.636636019E0
1.160920886E0,8.063324928E0,-4.728344917E0,3.492990017E0
1.163351250E0,8.266822815E0,-4.962966442E0,3.363708735E0
1.165781667E0,8.465533257E0,-5.240682125E0,3.184151173E0
1.168212917E0,8.585238457E0,-5.499245167E0,2.956712008E0
1.170644115E0,8.731278419E0,-5.719501972E0,2.758001804E0
1.173074532E0,8.783947945E0,-5.992428780E0,2.621538162E0
1.175504948E0,8.970687866E0,-6.124104500E0,2.236088276E0
1.177936146E0,9.056876183E0,-6.227050781E0,2.087654114E0
1.180367396E0,9.109545708E0,-6.370697021E0,1.905702591E0
1.182797761E0,9.198126793E0,-6.289297581E0,1.632775426E0
1.185228177E0,9.174185753E0,-6.358726501E0,1.651928067E0
1.187659427E0,9.131093025E0,-6.219868660E0,1.517858624E0
1.190090677E0,9.001811028E0,-6.198321342E0,1.740509748E0
1.192521042E0,8.886895180E0,-6.112133980E0,1.611228466E0
1.194951459E0,8.688183784E0,-5.978064537E0,1.718962908E0
1.197382709E0,8.573267937E0,-5.805689335E0,1.730933428E0
1.199813907E0,8.420044899E0,-5.650073051E0,1.788391709E0
1.202244271E0,8.329069138E0,-5.549520969E0,1.850638390E0
1.204674688E0,8.161482811E0,-5.367569447E0,1.876973391E0
1.207105938E0,8.070507050E0,-5.197588444E0,1.929643631E0
1.209537188E0,7.912496567E0,-5.022819042E0,2.092442274E0
1.211967552E0,7.716180325E0,-4.843262196E0,2.200176716E0
1.214397969E0,7.577322483E0,-4.663704395E0,2.379734278E0
1.216829219E0,7.452829361E0,-4.536817074E0,2.619143963E0
1.219260417E0,7.342700958E0,-4.429082394E0,2.803489685E0
1.221690834E0,7.237360477E0,-4.323742390E0,3.109934330E0
1.224121250E0,7.184690475E0,-4.266283989E0,3.452290535E0
1.226552448E0,7.153566837E0,-4.194460869E0,3.725217819E0
1.228983698E0,7.110473633E0,-4.091514587E0,4.046027184E0
1.231414063E0,7.057803154E0,-4.060391426E0,4.342895031E0
1.233844479E0,6.976403713E0,-4.043632984E0,4.582304955E0
1.236275729E0,6.945280552E0,-4.029268265E0,4.888749599E0
1.238706927E0,6.906974792E0,-4.117849827E0,5.159283161E0
1.241137344E0,6.878245354E0,-4.168126106E0,5.305323124E0
1.243567761E0,6.911763191E0,-4.292619228E0,5.343628407E0
1.245998959E0,6.935704231E0,-4.417111874E0,5.453756809E0
1.248430209E0,6.981192112E0,-4.560758114E0,5.525579929E0
1.250860573E0,7.072167397E0,-4.668492317E0,5.539944649E0
1.253290990E0,7.167931557E0,-4.757073879E0,5.458545208E0
1.255722240E0,7.302000999E0,-4.781014919E0,5.300534725E0
1.258153490E0,7.483952522E0,-4.757073879E0,5.128159523E0
1.260583854E0,7.689845085E0,-4.761862278E0,4.941420078E0
1.263014271E0,7.907708168E0,-4.795380116E0,4.670886517E0
1.265445521E0,8.104024887E0,-4.761862278E0,4.357259274E0
1.267876719E0,8.290763855E0,-4.737921715E0,3.981386185E0
1.270307084E0,8.532567978E0,-4.747498035E0,3.595936298E0
1.272737500E0,8.695366859E0,-4.752285957E0,3.236821413E0
1.275168750E0,8.817465782E0,-4.764256477E0,2.911223888E0
1.277600000E0,8.920412064E0,-4.821714878E0,2.655055523E0
1.280030365E0,9.042510986E0,-4.879172802E0,2.451556921E0
1.282460782E0,9.037722588E0,-4.788197517E0,2.343822718E0
1.284892032E0,9.068845749E0,-4.630187035E0,1.587287545E0
1.287323229E0,8.992235184E0,-4.634974957E0,1.436459303E0
1.289753646E0,8.941959381E0,-4.634974957E0,1.352665782E0
1.292184063E0,8.748037338E0,-4.570334435E0,1.338301301E0
1.294615261E0,8.587632179E0,-4.448235512E0,1.314360261E0
1.297046511E0,8.424833298E0,-4.498511314E0,1.173108339E0
1.299476875E0,8.187817574E0,-4.493723392E0,1.165926099E0
1.301907292E0,8.020231247E0,-4.429082394E0,1.144379258E0
1.304338542E0,8.106418610E0,-4.385989189E0,5.267017335E-2
1.306769740E0,8.740855217E0,-4.117849827E0,-3.418772936E0
1.309200157E0,8.092054367E0,-3.969415665E0,-4.962966442E0
1.311630573E0,7.725756645E0,-4.072361946E0,-4.833685398E0
1.314061771E0,8.455957413E0,-4.383594990E0,-3.478625536E0
1.316493021E0,9.432748795E0,-4.575122356E0,-1.625592947E0
1.318923386E0,9.679341316E0,-4.742709637E0,-9.313044548E-1
1.321353802E0,9.794258118E0,-4.735527515E0,-8.211758733E-1
1.323785052E0,9.669765472E0,-4.618216515E0,-4.620610774E-1
1.326216250E0,9.708069801E0,-4.407536030E0,-2.178629786E-1
1.328646667E0,9.732010841E0,-4.318953991E0,1.987102032E-1
1.331077084E0,9.688918114E0,-4.132214546E0,5.075489283E-1
1.333508282E0,9.559636116E0,-4.043632984E0,8.762401342E-1
1.335939532E0,9.466265678E0,-3.986174583E0,1.086920857E0
1.338369896E0,9.430355072E0,-3.921533823E0,1.144379258E0
1.340800313E0,9.789469719E0,-3.945474863E0,1.048615217E0
1.343231563E0,9.248402596E0,-3.871257782E0,2.200176716E0
1.345662761E0,8.281187057E0,-3.835346222E0,3.459472656E0
1.348093177E0,7.196660995E0,-3.763523340E0,4.283042431E0
1.350523594E0,5.595008850E0,-3.660577059E0,4.915084362E0
1.352954792E0,2.911223888E0,-3.576783419E0,6.507160664E0
1.355386042E0,-5.721896291E-1,-3.653394699E0,1.906660271E1
1.357816407E0,9.815804660E-2,-3.457078457E0,2.288279533E1
1.360246823E0,7.206237316E-1,-3.181757212E0,1.880804062E1
1.362678073E0,2.001466513E0,-3.023746729E0,1.471173668E1
1.365109271E0,3.516931057E0,-2.841795206E0,1.208541012E1
1.367539688E0,5.422633648E0,-2.774760485E0,9.032935143E0
1.369970104E0,7.053015232E0,-2.808277845E0,6.397031784E0
1.372401354E0,8.558902740E0,-2.717302084E0,4.848050117E0
1.374832552E0,9.791864395E0,-2.686178684E0,3.890410423E0
1.377262917E0,1.052685165E1,-2.798701525E0,2.410857439E0
1.379693334E0,1.110861778E1,-2.911223888E0,1.314360261E0
1.382124584E0,1.171432495E1,-3.054869890E0,7.517470121E-1
1.384555782E0,1.214526272E1,-3.244003773E0,7.182296365E-3
1.386986198E0,1.243973732E1,-3.387649775E0,5.267017335E-2
1.389416615E0,1.251156044E1,-3.615088940E0,1.364636272E-1
1.391847813E0,1.245170784E1,-3.840134382E0,1.436459273E-1
1.394279063E0,1.224581528E1,-3.856893063E0,9.576395154E-2
1.396709427E0,1.208541012E1,-3.787464142E0,-1.173108369E-1
1.399139844E0,1.175502491E1,-3.739582300E0,-6.942886859E-2
1.401571094E0,1.135760403E1,-3.631847858E0,-6.464067101E-2
1.404002292E0,1.089314938E1,-3.524113178E0,-1.388577372E-1
1.406432709E0,1.037841797E1,-3.363708735E0,-1.364636272E-1
1.408863125E0,9.906781197E0,-3.255974293E0,-5.506426841E-2
1.411294323E0,9.365714073E0,-3.131481171E0,-2.394098788E-2
1.413725573E0,8.939564705E0,-2.985441208E0,4.309377819E-2
1.416155938E0,8.530174255E0,-2.894465446E0,6.703476608E-2
1.418586354E0,8.297946930E0,-2.851371527E0,1.125226393E-1
1.421017604E0,8.132753372E0,-2.777154446E0,2.394098788E-1
1.423448802E0,8.046566010E0,-2.753213406E0,2.992623448E-1
1.425879219E0,8.015442848E0,-2.772366285E0,3.399620354E-1
1.428309636E0,8.068113327E0,-2.729272604E0,4.117850065E-1
1.430740834E0,8.132753372E0,-2.669420004E0,5.841601491E-1
1.433172084E0,8.206970215E0,-2.597597361E0,7.397764921E-1
1.435602448E0,8.264429092E0,-2.571261883E0,8.690578938E-1
1.438032865E0,8.302734375E0,-2.497045040E0,1.003127337E0
1.440464115E0,8.386528015E0,-2.516197681E0,1.232960820E0
1.442895313E0,8.297946930E0,-2.497045040E0,1.558558226E0
1.445325729E0,8.300340652E0,-2.487468481E0,1.611228466E0
1.447756146E0,8.274005890E0,-2.485074520E0,1.802756429E0
1.450187344E0,8.312311172E0,-2.520986080E0,2.042166233E0
1.452618594E0,8.293157578E0,-2.592808962E0,2.164265156E0
1.455048959E0,8.326675415E0,-2.631114483E0,2.327064037E0
1.457479375E0,8.362586975E0,-2.765183926E0,2.506621599E0
1.459910625E0,8.458351135E0,-2.896859407E0,2.844189167E0
1.462341823E0,8.494261742E0,-3.006988049E0,3.215274572E0
1.464772240E0,8.518202782E0,-3.107540369E0,3.248791933E0
1.467202657E0,8.446379662E0,-3.167392731E0,3.184151173E0
1.469633854E0,8.511020660E0,-3.239215612E0,3.205698252E0
1.472065104E0,8.520597458E0,-3.275126934E0,3.160210133E0
1.474495469E0,8.592419624E0,-3.260762453E0,3.107540369E0
1.476925886E0,8.743248940E0,-3.294280052E0,3.083599329E0
1.479357136E0,8.874923706E0,-3.287097454E0,3.083599329E0
1.481788334E0,9.020963669E0,-3.277521133E0,3.045293570E0
1.484218698E0,9.174185753E0,-3.248791933E0,2.911223888E0
1.486649115E0,9.344166756E0,-3.169786692E0,2.765183926E0
1.489080365E0,9.554847717E0,-3.102751970E0,2.561685801E0
1.491511563E0,9.767923355E0,-3.045293570E0,2.384522200E0
1.493941979E0,1.000493908E1,-3.021352530E0,2.257635117E0
1.496372396E0,1.010309696E1,-2.975864649E0,1.900914431E0
1.498803594E0,1.014379597E1,-2.932770967E0,1.553770185E0
1.501234844E0,1.027547169E1,-2.908829927E0,1.343089342E0
1.503665209E0,1.033771801E1,-2.904041767E0,1.173108339E0
1.506095625E0,1.037362957E1,-2.884888887E0,9.456689954E-1
1.508526875E0,1.032574844E1,-2.844189167E0,8.020230532E-1
1.510958073E0,1.022280216E1,-2.798701525E0,6.104952097E-1
1.513388490E0,1.006718540E1,-2.743637323E0,4.309377670E-1
1.515818907E0,9.866081238E0,-2.726878405E0,2.202570736E-1
1.518250104E0,9.693705559E0,-2.681390524E0,4.788197577E-2
1.520681354E0,9.530906677E0,-2.662237644E0,-8.858165890E-2
1.523111719E0,9.401625633E0,-2.609567642E0,-1.460400373E-1
1.525542136E0,9.432748795E0,-2.542532682E0,5.745837092E-2
1.527973386E0,9.274739265E0,-2.427616358E0,1.197049394E-2
1.530404584E0,9.128699303E0,-2.327064037E0,-2.250452787E-1
1.532835000E0,8.997022629E0,-2.192994595E0,-3.471443057E-1
1.535265417E0,8.896471024E0,-2.106806993E0,-4.165731966E-1
1.537696615E0,8.817465782E0,-2.001466513E0,-4.931843579E-1
1.540127865E0,8.719307899E0,-1.898520231E0,-4.237554669E-1
1.542558229E0,8.649879456E0,-1.800362229E0,-2.872918546E-1
1.544988646E0,8.534961700E0,-1.759662628E0,-7.661115378E-2
1.547419896E0,8.429621696E0,-1.706992388E0,6.464067101E-2
1.549851094E0,8.317098618E0,-1.644745827E0,3.758735061E-1
1.552281459E0,8.235699654E0,-1.592075586E0,6.535889506E-1
1.554711875E0,8.139935493E0,-1.582499266E0,9.983391762E-1
1.557143125E0,8.041777611E0,-1.553770185E0,1.434065104E0
1.559574323E0,7.989107609E0,-1.484341264E0,1.865002871E0
1.562004740E0,7.957983971E0,-1.422094584E0,2.250452757E0
1.564435157E0,7.969954491E0,-1.379000902E0,2.638296843E0
1.566866407E0,7.902919769E0,-1.333513021E0,2.997411728E0
1.569297604E0,7.831097126E0,-1.316754222E0,3.260762453E0
1.571727969E0,7.828702927E0,-1.331118822E0,3.471443176E0
1.574158386E0,7.886161327E0,-1.446035624E0,3.691700220E0
1.576589636E0,7.890949726E0,-1.563346505E0,3.768311501E0
1.579020834E0,7.962772369E0,-1.666292787E0,3.866469383E0
1.581451250E0,7.955589771E0,-1.714174747E0,3.847316742E0
1.583881667E0,8.008260727E0,-1.685445547E0,3.792252541E0
1.586312865E0,8.132753372E0,-1.661504507E0,3.682123661E0
1.588744115E0,8.455957413E0,-1.671080828E0,3.521719217E0
1.591174479E0,8.685790062E0,-1.747692108E0,3.430743456E0
1.593604896E0,8.963505745E0,-1.797968149E0,3.153028011E0
1.596036146E0,9.181368828E0,-1.728539228E0,2.896859407E0
1.598467344E0,9.202916145E0,-1.984707832E0,2.499439001E0
1.600897761E0,9.147850990E0,-3.114722490E0,2.341428518E0
1.603328177E0,9.392048836E0,-3.363708735E0,2.185812235E0
1.605759375E0,9.518937111E0,-3.337373734E0,2.006254673E0
1.608190625E0,9.557242393E0,-3.112328291E0,1.838667870E0
1.610620990E0,9.234039307E0,-2.930376768E0,1.479552984E0
1.613051407E0,8.420044899E0,-2.743637323E0,9.169397950E-1
1.615482657E0,7.481558323E0,-2.571261883E0,3.567207158E-1
1.617913854E0,7.136808395E0,-2.504227161E0,-4.788197111E-3
1.620344219E0,7.160749435E0,-2.525774240E0,-1.819514930E-1
1.622774636E0,7.404947281E0,-2.599991322E0,-2.154688835E-1
1.625205886E0,7.661116123E0,-2.702937603E0,-2.777154744E-1
1.627637084E0,7.936437607E0,-2.781942844E0,-2.729272544E-1
1.630067500E0,8.087265968E0,-2.738848925E0,-6.224656478E-2
1.632497917E0,8.005866051E0,-2.705331564E0,3.591148183E-2
1.634929115E0,7.859826088E0,-2.645478964E0,1.197049394E-1
1.637360365E0,7.802368164E0,-2.590414762E0,2.250452787E-1
1.639790729E0,7.991501331E0,-2.853765726E0,2.513803840E-1
1.642221146E0,7.917284489E0,-3.117116451E0,-4.788197111E-3
1.644652396E0,8.171058655E0,-3.327797174E0,-3.112328239E-2
1.647083594E0,8.508626938E0,-3.471443176E0,-1.651928127E-1
1.649514011E0,8.743248940E0,-3.655788660E0,-3.974204063E-1
1.651944427E0,8.862954140E0,-3.813799143E0,-7.158355117E-1
1.654375625E0,9.092786789E0,-3.909563303E0,-1.005521536E0
1.656806875E0,9.234039307E0,-3.950263023E0,-1.299995661E0
1.659237240E0,9.289102554E0,-4.072361946E0,-1.575317025E0
1.661667657E0,9.418383598E0,-4.160943508E0,-1.776421309E0
1.664098907E0,9.483024597E0,-4.251919270E0,-1.709386468E0
1.666530104E0,9.447113991E0,-4.345289230E0,-1.529829144E0
1.668960469E0,9.468661308E0,-4.424294472E0,-1.273660541E0
1.671390886E0,9.310649872E0,-4.558363914E0,-9.887627959E-1
1.673822136E0,9.131093025E0,-4.584699154E0,-6.128892303E-1
1.676253334E0,8.980263710E0,-4.642157555E0,-2.106806934E-1
1.678683750E0,9.016176224E0,-4.800168037E0,3.136269450E-1
1.681114167E0,8.968294144E0,-4.857626438E0,6.128892303E-1
1.683545365E0,8.903653145E0,-4.970149040E0,9.121516347E-1
1.685976615E0,8.865347862E0,-4.869596958E0,1.072556257E0
1.688406979E0,8.824647903E0,-4.895932198E0,1.304783821E0
1.690837396E0,8.795919418E0,-4.709191799E0,1.367030382E0
1.693268646E0,8.836618423E0,-4.699615955E0,1.299995661E0
1.695699844E0,9.008994102E0,-4.725951195E0,1.175502539E0
1.698130261E0,9.310649872E0,-4.891143322E0,1.084526777E0
1.700560677E0,9.336984634E0,-4.934237480E0,8.570873737E-1
1.702991875E0,9.214885712E0,-4.675674915E0,2.968682647E-1
1.705423125E0,9.135881424E0,-4.589487553E0,-1.436459273E-2
1.707853490E0,9.200521469E0,-4.457811832E0,-2.561685741E-1
1.710283907E0,9.226857185E0,-4.239949226E0,-6.320420504E-1
1.712715104E0,1.011506653E1,-4.488934994E0,-2.848977447E-1
1.715146354E0,1.055558109E1,-4.740315437E0,5.027607456E-2
1.717576719E0,1.030180740E1,-4.637369633E0,-3.399620354E-1
1.720007136E0,1.066331577E1,-4.816926479E0,-2.872918546E-2
1.722438386E0,1.028265381E1,-4.886355400E0,5.985246971E-2
1.724869584E0,1.002169704E1,-5.015636921E0,1.771633178E-1
1.727300000E0,9.617094994E0,-5.068306923E0,2.561685741E-1
1.729730417E0,9.494996071E0,-5.211953163E0,6.272538900E-1
1.732161615E0,9.645824432E0,-5.173647404E0,1.086920857E0
1.734592865E0,9.418383598E0,-5.326869488E0,1.565740585E0
1.737023229E0,9.854109764E0,-5.851177692E0,2.027801514E0
1.739453646E0,9.356138229E0,-5.843995094E0,1.967949152E0
1.741884896E0,9.078421593E0,-5.626132011E0,1.872185230E0
1.744316094E0,9.099968910E0,-5.362781048E0,1.843456030E0
1.746746459E0,9.097575188E0,-5.204770565E0,1.685445547E0
1.749176875E0,9.083210945E0,-5.228711605E0,1.465188384E0
1.751608125E0,9.028145790E0,-5.123371601E0,1.206625700E0
1.754039323E0,9.028145790E0,-4.809744358E0,9.097574949E-1
1.756469740E0,9.308256149E0,-4.663704395E0,6.440125704E-1
1.758900157E0,9.322621346E0,-4.414718151E0,3.758735061E-1
1.761331354E0,8.601997375E0,-4.108273506E0,-3.830557689E-2
1.763762604E0,8.925200462E0,-4.165731907E0,9.815804660E-2
1.766192969E0,9.018569946E0,-4.062785625E0,1.244931296E-1
1.768623386E0,8.398497581E0,-3.758734941E0,3.830557689E-2
1.771054636E0,7.802368164E0,-3.227245092E0,-1.987102032E-1
1.773485834E0,8.436803818E0,-3.227245092E0,-3.255974352E-1
1.775916198E0,8.240488052E0,-3.081204891E0,-1.173108369E-1
1.778346615E0,8.681001663E0,-3.323009014E0,2.705331445E-1
1.780777865E0,8.700155258E0,-3.234427452E0,5.626131892E-1
1.783209063E0,8.697760582E0,-2.695755243E0,8.020230532E-1
1.785639479E0,7.984319687E0,-1.874579430E0,1.120438218E0
1.788069896E0,6.990768433E0,6.607712507E-1,2.887283087E0
1.790501094E0,9.322621346E0,3.909563303E0,7.881372929E0
1.792932344E0,1.273421097E1,6.088192940E0,1.231045628E1
1.795362709E0,1.098173141E1,3.361314774E0,8.872529984E0
1.797793125E0,7.342700958E0,-1.175502539E0,1.809938669E0
1.800224375E0,5.946941376E0,-4.587092876E0,-3.370891094E0
1.802655573E0,5.367569447E0,-7.519864082E0,-7.141596317E0
1.805085938E0,7.692239285E0,-9.231644630E0,-7.823914528E0
1.807516354E0,9.980998039E0,-1.002888012E1,-7.220602036E0
1.809947604E0,1.132887459E1,-1.019167805E1,-5.994823456E0
1.812378802E0,1.161856079E1,-9.844533920E0,-4.216008186E0
1.814809219E0,1.131451130E1,-9.224461555E0,-2.243270397E0
1.817239636E0,1.092666721E1,-8.645091057E0,-2.489862591E-1
1.819670834E0,1.045502853E1,-8.108812332E0,1.556164145E0
1.822102084E0,1.000014973E1,-7.692239285E0,2.573656321E0
1.824532448E0,9.904387474E0,-7.304395676E0,3.153028011E0
1.826962865E0,9.770317078E0,-6.947674274E0,3.167392731E0
1.829394115E0,9.638642311E0,-6.693900108E0,2.882494926E0
1.831825313E0,9.547665596E0,-6.485613346E0,2.362975597E0
1.834255729E0,9.545271873E0,-6.239021301E0,1.922461271E0
1.836686146E0,9.846927643E0,-5.968488216E0,1.570528746E0
1.839117344E0,9.813410759E0,-5.659649372E0,1.290419221E0
1.841548594E0,9.832564354E0,-5.336445808E0,1.197049379E0
1.843978959E0,9.806227684E0,-5.089853764E0,1.252113581E0
1.846409375E0,9.945085526E0,-4.864808559E0,1.534617305E0
1.848840573E0,9.882840157E0,-4.718768597E0,1.675869107E0
1.851271823E0,9.822986603E0,-4.594275475E0,1.817121029E0
1.853702188E0,9.164609909E0,-4.493723392E0,1.793179989E0
1.856132604E0,8.786341667E0,-4.433870792E0,1.927249551E0
1.858563854E0,8.472715378E0,-4.407536030E0,1.984707832E0
1.860995052E0,8.302734375E0,-4.359653950E0,2.037378073E0
1.863425469E0,8.276399612E0,-4.326136589E0,2.099624395E0
1.865855886E0,8.326675415E0,-4.304589272E0,2.097230434E0
1.868287084E0,8.192605972E0,-4.280648708E0,2.054136753E0
1.870718282E0,7.984319687E0,-4.227978706E0,1.936825871E0
1.873148698E0,7.941225529E0,-4.187278748E0,1.783603668E0
1.875579115E0,8.017836571E0,-4.139396667E0,1.793179989E0
1.878010313E0,8.084871292E0,-4.067573547E0,1.718962908E0
1.880441563E0,8.190212250E0,-3.962233543E0,1.706992388E0
1.882871927E0,8.446379662E0,-3.919139862E0,1.821909070E0
1.885302344E0,8.563691139E0,-3.914351463E0,1.807544470E0
1.887733594E0,8.683396339E0,-3.919139862E0,1.853032351E0
1.890164792E0,8.771978378E0,-3.981386185E0,1.853032351E0
1.892595209E0,8.834223747E0,-4.019691944E0,1.922461271E0
1.895025625E0,8.771978378E0,-4.093908787E0,1.881761670E0
1.897456823E0,8.783947945E0,-4.244737148E0,1.869791150E0
1.899888073E0,8.719307899E0,-4.409930229E0,1.843456030E0
1.902318438E0,8.707337379E0,-4.613428593E0,1.826697350E0
1.904748854E0,8.700155258E0,-4.764256477E0,1.812332749E0
1.907180052E0,9.066452026E0,-4.785803318E0,1.817121029E0
1.909611302E0,9.061663628E0,-4.721162319E0,1.723751068E0
1.912041667E0,9.111940384E0,-4.713980675E0,1.580105066E0
1.914472084E0,9.030540466E0,-4.697221279E0,1.424488783E0
1.916903334E0,9.138275146E0,-4.627792835E0,1.290419221E0
1.919334532E0,9.171792030E0,-4.613428593E0,1.079738498E0
1.921764948E0,9.447113991E0,-4.558363914E0,9.504572153E-1
1.924195365E0,9.641036034E0,-4.572728634E0,7.924466729E-1
1.926626563E0,9.700887680E0,-4.599063396E0,6.416184306E-1
1.929057813E0,9.966632843E0,-4.675674915E0,6.152833700E-1
1.931488177E0,1.054839897E1,-4.716374397E0,7.373824120E-1
1.933918594E0,1.071359158E1,-4.747498035E0,7.134414315E-1
1.936349844E0,1.090272617E1,-4.675674915E0,7.182296515E-1
1.938781042E0,1.134084606E1,-4.558363914E0,8.259640336E-1
1.941211407E0,1.161137867E1,-4.443447590E0,9.408808351E-1
1.943641823E0,1.194415855E1,-4.347683430E0,9.983391762E-1
1.946073073E0,1.151800919E1,-4.127426147E0,1.053403497E0
1.948504271E0,1.181008911E1,-3.971809864E0,1.340695262E0
1.950934688E0,1.174784279E1,-3.775493860E0,1.388577223E0
1.953365104E0,1.135999870E1,-3.567207336E0,1.419700503E0
1.955796302E0,1.112777138E1,-3.402014256E0,1.496311784E0
1.958227552E0,1.044545269E1,-3.193727732E0,1.613622546E0
1.960657917E0,9.985786438E0,-3.057264090E0,1.706992388E0
1.963088334E0,9.693705559E0,-2.975864649E0,1.613622546E0
1.965519584E0,9.032935143E0,-2.911223888E0,1.481947184E0
1.967950782E0,9.037722588E0,-2.882494926E0,1.261690021E0
1.970381146E0,8.601997375E0,-2.781942844E0,1.137196898E0
1.972811563E0,8.357798576E0,-2.705331564E0,1.000733256E0
1.975242813E0,7.407341480E0,-2.631114483E0,7.110472918E-1
1.977674011E0,6.583771706E0,-2.453951359E0,6.152833700E-1
1.980104427E0,6.066646099E0,-2.269605398E0,6.990768313E-1
1.982534844E0,6.104951859E0,-2.228905916E0,6.918945909E-1
1.984966042E0,6.849516392E0,-2.365369558E0,8.044171929E-1
1.987397292E0,7.395370960E0,-2.619143963E0,9.145457745E-1
1.989827657E0,8.051354408E0,-2.925588846E0,9.217280149E-1
1.992258073E0,8.479898453E0,-3.112328291E0,9.001811147E-1
1.994689271E0,8.793524742E0,-3.318220854E0,9.743981957E-1
1.997120521E0,9.121516228E0,-3.447502136E0,1.177896619E0
1.999550886E0,9.351349831E0,-3.603118420E0,1.173108339E0
2.001981302E0,9.820592880E0,-3.789858341E0,1.168320298E0
2.004412552E0,1.039757061E1,-3.866469383E0,1.213808179E0
2.006843750E0,1.057952213E1,-3.847316742E0,1.213808179E0
2.009274167E0,1.032814217E1,-3.792252541E0,1.149167418E0
2.011704584E0,9.772710800E0,-3.639029980E0,1.134802699E0
2.014135782E0,9.799045563E0,-3.552842617E0,1.197049379E0
2.016567032E0,9.827775002E0,-3.509748697E0,1.086920857E0
2.018997396E0,9.787075996E0,-3.471443176E0,1.113255858E0
2.021427813E0,8.982658386E0,-3.334979534E0,1.141985178E0
2.023859063E0,8.494261742E0,-3.150634050E0,1.335907102E0
2.026290261E0,8.063324928E0,-3.016564608E0,1.355059862E0
2.028720625E0,8.106418610E0,-2.947135448E0,1.364636302E0
2.031151042E0,7.706604004E0,-2.860948086E0,1.400547743E0
2.033582292E0,7.582110405E0,-2.808277845E0,1.465188384E0
2.036013490E0,7.618021965E0,-2.801095486E0,1.359848142E0
2.038443907E0,7.658721924E0,-2.805883646E0,1.364636302E0
2.040874323E0,8.041777611E0,-2.892071247E0,1.441247463E0
2.043305521E0,7.934042931E0,-2.930376768E0,1.580105066E0
2.045736771E0,8.084871292E0,-2.992623568E0,1.599257946E0
2.048167136E0,8.561297417E0,-3.184151173E0,1.493917584E0
2.050597552E0,8.786341667E0,-3.217668772E0,1.501099825E0
2.053028802E0,8.865347862E0,-3.258368492E0,1.400547743E0
2.055460000E0,9.054480553E0,-3.212880611E0,1.395759583E0
2.057890365E0,9.159822464E0,-3.239215612E0,1.371818662E0
2.060320782E0,8.915623665E0,-3.277521133E0,1.273660541E0
2.062752032E0,8.846195221E0,-3.306250334E0,1.211413980E0
2.065183229E0,9.210098267E0,-3.406802416E0,1.242537260E0
2.067613646E0,9.590760231E0,-3.543266296E0,1.228172660E0
2.070044063E0,9.875657082E0,-3.677335739E0,1.256901860E0
2.072475261E0,9.834958076E0,-3.785069942E0,1.288025141E0
2.074906511E0,9.760741234E0,-3.856893063E0,1.268872380E0
2.077336875E0,9.743982315E0,-3.928715944E0,1.209019899E0
2.079767292E0,1.001930332E1,-3.993356705E0,1.338301301E0
2.082198542E0,9.868474960E0,-4.036450386E0,1.309571981E0
2.084629740E0,9.451902390E0,-4.002933025E0,1.254507780E0
2.087060104E0,9.224461555E0,-3.861681223E0,1.220990419E0
2.089490521E0,9.162216187E0,-3.708458900E0,1.225778461E0
2.091921771E0,9.578788757E0,-3.600724459E0,1.218596220E0
2.094352969E0,1.031138325E1,-3.641424179E0,1.197049379E0
2.096783386E0,1.027786636E1,-3.679729700E0,9.767923355E-1
2.099213802E0,1.018928432E1,-3.617483139E0,9.384866953E-1
2.101645000E0,1.037123585E1,-3.509748697E0,1.177896619E0
2.104076250E0,1.068965054E1,-3.519325256E0,1.386183143E0
2.106506615E0,1.038081169E1,-3.447502136E0,1.280842900E0
2.108937032E0,1.027786636E1,-3.349344254E0,1.283236861E0
2.111368282E0,1.039278316E1,-3.323009014E0,1.331118822E0
2.113799479E0,1.020604324E1,-3.236821413E0,1.350271702E0
2.116229844E0,9.777499199E0,-3.172180653E0,1.347877622E0
2.118660261E0,9.916357040E0,-3.064446449E0,1.582499266E0
2.121091511E0,9.921145439E0,-3.016564608E0,1.448429704E0
2.123522709E0,9.964239120E0,-2.923194408E0,1.278448701E0
2.125953125E0,1.000493908E1,-2.829824686E0,1.204231620E0
2.128383542E0,9.878050804E0,-2.798701525E0,1.101285338E0
2.130814740E0,9.913963318E0,-2.741242886E0,1.005521536E0
2.133245990E0,9.873263359E0,-2.683784723E0,1.127620459E0
2.135676354E0,1.012224960E1,-2.609567642E0,1.132408738E0
2.138106771E0,1.033771801E1,-2.592808962E0,1.074950337E0
2.140538021E0,1.067528629E1,-2.633508444E0,9.504572153E-1
2.142969219E0,1.095539570E1,-2.650267363E0,9.648218155E-1
2.145399584E0,1.106073570E1,-2.710119724E0,1.177896619E0
2.147830000E0,1.049094105E1,-2.700543404E0,1.206625700E0
2.150261250E0,1.054361057E1,-2.657449484E0,1.264084101E0
2.152692448E0,1.067768002E1,-2.693361044E0,1.103679538E0
2.155122865E0,1.056755161E1,-2.738848925E0,9.241221547E-1
2.157553282E0,1.028026009E1,-2.724484205E0,9.121516347E-1
2.159984479E0,9.935509682E0,-2.748425245E0,9.648218155E-1
2.162415729E0,1.008633804E1,-2.772366285E0,1.079738498E0
2.164846094E0,1.049094105E1,-2.822642565E0,1.034250736E0
2.167276511E0,1.033053589E1,-2.892071247E0,1.067767978E0
2.169707761E0,9.696100235E0,-2.796307325E0,1.189867139E0
2.172138959E0,1.001690865E1,-2.868130207E0,1.180290580E0
2.174569323E0,1.005282116E1,-2.875312567E0,1.194655299E0
2.176999740E0,9.909174919E0,-2.820248365E0,1.276054621E0
2.179430990E0,9.554847717E0,-2.765183926E0,1.223384500E0
2.181862188E0,9.353743553E0,-2.796307325E0,8.427227736E-1
2.184292604E0,9.313043594E0,-2.808277845E0,8.499050736E-1
2.186723021E0,8.692973137E0,-2.714907885E0,1.055797458E0
2.189154219E0,8.350616455E0,-2.664632082E0,1.127620459E0
2.191585469E0,8.558902740E0,-2.695755243E0,9.863687158E-1
2.194015834E0,7.546199322E0,-2.516197681E0,8.235700130E-1
2.196446250E0,6.784875870E0,-2.403675318E0,1.094103098E0
2.198877500E0,6.454490185E0,-2.346216679E0,1.096497297E0
2.201308698E0,6.306056023E0,-2.322275639E0,8.810282946E-1
2.203739063E0,6.689112186E0,-2.391704798E0,6.416184306E-1
2.206169479E0,6.988374233E0,-2.391704798E0,6.727417707E-1
2.208600729E0,7.433676720E0,-2.353399038E0,5.650073290E-1
2.211031927E0,7.433676720E0,-2.300729036E0,4.333318770E-1
2.213462344E0,7.574928284E0,-2.142718554E0,4.836079478E-1
2.215892761E0,7.409735680E0,-2.097230434E0,5.195194483E-1
2.218323959E0,7.850249767E0,-2.169053555E0,4.285436869E-1
2.220755209E0,8.156694412E0,-2.291152477E0,3.136269450E-1
2.223185573E0,8.242881775E0,-2.406069279E0,4.572728872E-1
2.225615990E0,8.501444817E0,-2.530562401E0,6.559830904E-1
2.228047240E0,8.625938416E0,-2.635902643E0,7.900525331E-1
2.230478438E0,9.147850990E0,-2.750819445E0,8.427227736E-1
2.232908802E0,9.478237152E0,-2.848977566E0,7.756879926E-1
2.235339219E0,9.820592880E0,-2.901647806E0,8.163877130E-1
2.237770469E0,1.009352016E1,-2.916012287E0,8.475109339E-1
2.240201667E0,1.003127384E1,-2.834613085E0,9.648218155E-1
2.242632084E0,9.899598122E0,-2.825036526E0,1.029462457E0
2.245062500E0,9.758345604E0,-2.801095486E0,9.360926151E-1
2.247493698E0,9.746376038E0,-2.695755243E0,9.648218155E-1
2.249924948E0,1.005521488E1,-2.595202923E0,9.983391762E-1
2.252355313E0,1.043348217E1,-2.504227161E0,1.041432977E0
2.254785729E0,1.031138325E1,-2.317487478E0,1.170714259E0
2.257216979E0,1.018688965E1,-2.202570677E0,9.959450364E-1
2.259648177E0,1.015337276E1,-1.991890073E0,9.336984754E-1
2.262078542E0,1.030180740E1,-1.774027109E0,1.043827057E0
2.264508959E0,1.062740421E1,-1.649533987E0,9.169397950E-1
2.266940209E0,1.079020309E1,-1.625592947E0,6.128892303E-1
2.269371407E0,1.063458729E1,-1.606440306E0,4.836079478E-1
2.271801823E0,1.025392532E1,-1.441247463E0,5.338839889E-1
2.274232240E0,1.006718540E1,-1.340695262E0,7.349883318E-1
2.276663438E0,1.000014973E1,-1.345483541E0,7.469587922E-1
2.279094688E0,1.022998428E1,-1.422094584E0,6.799240708E-1
2.281525052E0,1.022998428E1,-1.410124183E0,6.655594110E-1
2.283955469E0,1.044784737E1,-1.484341264E0,7.589293122E-1
2.286386719E0,1.079259682E1,-1.604046106E0,5.410662889E-1
2.288817917E0,1.052924633E1,-1.508282304E0,6.679535508E-1
2.291248282E0,1.010788536E1,-1.481947184E0,8.499050736E-1
2.293678698E0,9.849322319E0,-1.527434945E0,8.115994930E-1
2.296109948E0,9.576395035E0,-1.558558226E0,6.464067101E-1
2.298541146E0,9.473448753E0,-1.584893346E0,6.823181510E-1
2.300971563E0,9.617094994E0,-1.623198986E0,6.727417707E-1
2.303401979E0,9.157427788E0,-1.608834386E0,4.429082870E-1
2.305833177E0,8.929987907E0,-1.520252705E0,2.130747885E-1
2.308264427E0,8.669032097E0,-1.477158904E0,2.418039739E-1
2.310694792E0,8.271611214E0,-1.455611944E0,3.758735061E-1
2.313125209E0,7.845461369E0,-1.493917584E0,2.777154744E-1
2.315556459E0,8.151906013E0,-1.556164145E0,-5.267017335E-2
2.317987657E0,7.855038166E0,-1.493917584E0,2.250452787E-1
2.320418021E0,8.654666901E0,-1.539405465E0,1.580105126E-1
2.322848438E0,8.628332138E0,-1.577711105E0,-6.009188294E-1
2.325279688E0,7.187084675E0,-1.436459303E0,3.686912060E-1
2.327710886E0,6.813604832E0,-1.321542501E0,7.637174726E-1
2.330141302E0,6.614894867E0,-1.216202140E0,1.338301301E0
2.332571719E0,6.650806427E0,-1.266478300E0,1.472370744E0
2.335002917E0,6.416184425E0,-1.369424462E0,1.259295940E0
2.337434167E0,6.856698990E0,-1.496311784E0,1.146773219E0
2.339864532E0,7.328336716E0,-1.611228466E0,1.034250736E0
2.342294948E0,7.488740921E0,-1.742903829E0,1.036644697E0
2.344726198E0,7.653933525E0,-1.800362229E0,9.025752544E-1
2.347157396E0,7.898131847E0,-1.845850110E0,7.852643728E-1
2.349587761E0,8.250064850E0,-1.888943911E0,7.397764921E-1
2.352018177E0,8.728883743E0,-1.987102032E0,6.583771110E-1
2.354449427E0,9.159822464E0,-2.046954393E0,6.703476310E-1
2.356880625E0,9.578788757E0,-2.092442274E0,6.966827512E-1
2.359311042E0,9.906781197E0,-2.192994595E0,7.206237316E-1
2.361741459E0,1.012224960E1,-2.224117756E0,7.613233924E-1
2.364172657E0,1.057234001E1,-2.262423277E0,7.708998322E-1
2.366603907E0,1.090033245E1,-2.322275639E0,7.469587922E-1
2.369034271E0,1.114931774E1,-2.360581160E0,7.732938528E-1
2.371464688E0,1.154195023E1,-2.437192440E0,7.900525331E-1
2.373895938E0,1.196331120E1,-2.509015560E0,7.613233924E-1
2.376327136E0,1.203992271E1,-2.556897402E0,6.918945909E-1
2.378757552E0,1.217638588E1,-2.532956600E0,7.756879926E-1
2.381187969E0,1.177417755E1,-2.487468481E0,8.810282946E-1
2.383619167E0,1.155152607E1,-2.501833200E0,9.815804958E-1
2.386050365E0,1.167123127E1,-2.492256641E0,1.000733256E0
2.388480782E0,1.186036491E1,-2.418039799E0,9.504572153E-1
2.390911198E0,1.178614807E1,-2.295940638E0,9.097574949E-1
2.393342396E0,1.213808060E1,-2.307911158E0,7.996289730E-1
2.395773646E0,1.230566788E1,-2.248058796E0,7.182296515E-1
2.398204011E0,1.244931316E1,-2.200176716E0,5.985246897E-1
2.400634427E0,1.264084053E1,-2.080471754E0,5.434604287E-1
2.403065677E0,1.281800461E1,-2.018225193E0,2.322275788E-1
2.405496875E0,1.235833836E1,-1.802756429E0,2.418039739E-1
2.407927292E0,1.254507732E1,-1.764450788E0,-1.460400373E-1
2.410357709E0,1.174305439E1,-1.443641543E0,3.351738155E-1
2.412788907E0,1.220511532E1,-1.319148421E0,5.506426841E-2
2.415220157E0,1.151322079E1,-1.106073618E0,-7.421706617E-2
2.417650521E0,1.122832298E1,-1.070162177E0,-3.615089059E-1
2.420080938E0,1.034968853E1,-1.041432977E0,-4.764256477E-1
2.422512136E0,9.226857185E0,-8.115994930E-1,5.937365294E-1
2.424943386E0,8.443985939E0,-7.325941920E-1,1.754874349E0
2.427373750E0,9.356138229E0,-7.254119515E-1,1.314360261E0
2.429804167E0,8.975476265E0,-4.883961678E-1,1.367030382E0
2.432235417E0,9.538088799E0,-4.476964772E-1,1.469976664E0
2.434666615E0,1.004803181E1,-5.027607679E-1,1.103679538E0
2.437097032E0,9.988180161E0,-5.075489283E-1,1.074950337E0
2.439527448E0,1.023716640E1,-5.506426692E-1,1.314360261E0
2.441958646E0,1.031377697E1,-6.942886114E-1,1.115650058E0
2.444389844E0,9.897204399E0,-7.445647120E-1,9.696099758E-1
2.446820261E0,1.021083069E1,-8.403286934E-1,7.876585126E-1
2.449250677E0,1.079259682E1,-8.666637540E-1,7.278059721E-1
2.451681927E0,1.105834198E1,-6.464067101E-1,9.935510159E-1
2.454113125E0,1.140069771E1,-5.578250289E-1,1.280842900E0
2.456543490E0,1.170235538E1,-5.482486486E-1,1.007915616E0
2.458973907E0,1.198485756E1,-7.086532712E-1,3.926321864E-1
2.461405157E0,1.226257420E1,-8.594814539E-1,-1.436459273E-1
2.463836354E0,1.197288799E1,-8.906047344E-1,-5.362781286E-1
2.466266771E0,1.189627743E1,-9.983391762E-1,-1.034250736E0
2.468697188E0,1.129057026E1,-1.158743739E0,-1.489129424E0
2.471128386E0,1.048615265E1,-1.371818662E0,-1.388577223E0
2.473559636E0,9.226857185E0,-1.563346505E0,-1.194655299E0
2.475990000E0,7.771244526E0,-1.742903829E0,-7.469587922E-1
2.478420417E0,6.708264351E0,-1.714174747E0,-6.440125704E-1
2.480851667E0,5.798507214E0,-1.539405465E0,-6.176775098E-1
2.483282865E0,5.267016888E0,-1.374212623E0,-3.567207158E-1
2.485713229E0,5.362781048E0,-1.278448701E0,-3.399620354E-1
2.488143646E0,5.020424843E0,-1.103679538E0,-6.942886859E-2
2.490574896E0,4.340500832E0,-9.025752544E-1,4.069967866E-1
2.493006094E0,3.959839344E0,-7.972348928E-1,7.948408127E-1
2.495436511E0,3.876045704E0,-7.804762125E-1,1.067767978E0
2.497866927E0,3.998145103E0,-8.475109339E-1,1.168320298E0
2.500298125E0,4.247130871E0,-8.858165741E-1,1.108467698E0
2.502729375E0,4.630187035E0,-8.977869749E-1,1.110861897E0
2.505159740E0,5.262228966E0,-9.384866953E-1,1.012703776E0
2.507590157E0,6.049887657E0,-1.072556257E0,8.283581734E-1
2.510021407E0,6.796846390E0,-1.211413980E0,5.913423896E-1
2.512452604E0,7.354671478E0,-1.261690021E0,4.285436869E-1
2.514882969E0,7.615627766E0,-1.254507780E0,3.088387549E-1
2.517313386E0,7.809549809E0,-1.225778461E0,2.872918546E-1
2.519744636E0,7.888555527E0,-1.192261100E0,3.639029860E-1
2.522175834E0,7.946013451E0,-1.151561499E0,4.285436869E-1
2.524606250E0,8.125571251E0,-1.118044138E0,5.362781286E-1
2.527036667E0,8.285976410E0,-1.077344418E0,6.440125704E-1
2.529467865E0,8.463138580E0,-1.022280216E0,7.302001119E-1
2.531899115E0,8.628332138E0,-9.791863561E-1,7.134414315E-1
2.534329479E0,9.121516228E0,-6.176775098E-1,8.331463933E-1
2.536759896E0,9.246008873E0,-4.692433476E-1,8.115994930E-1
2.539191146E0,9.183762550E0,-5.769777894E-1,7.278059721E-1
2.541622344E0,9.164609909E0,-6.871063113E-1,6.416184306E-1
2.544052709E0,9.145457268E0,-8.211758733E-1,5.985246897E-1
2.546483125E0,9.102362633E0,-9.313044548E-1,6.631653905E-1
2.548914375E0,9.083210945E0,-9.791863561E-1,7.254119515E-1
2.551345573E0,9.028145790E0,-1.000733256E0,7.972348928E-1
2.553775990E0,9.044904709E0,-9.911568761E-1,8.738460541E-1
2.556206407E0,9.087999344E0,-9.265161753E-1,7.924466729E-1
2.558637604E0,9.085604668E0,-8.163877130E-1,7.493529320E-1
2.561068854E0,8.929987907E0,-5.554309487E-1,5.985246897E-1
2.563499219E0,8.774372101E0,-3.734793961E-1,4.381200671E-1
2.565929636E0,8.604391098E0,-2.298334837E-1,3.208092153E-1
2.568360886E0,8.307522774E0,0.000000000E0,1.627987176E-1
2.570792084E0,8.075295448E0,2.130747885E-1,9.576395154E-2
2.573222448E0,7.771244526E0,4.788197577E-1,9.576395154E-2
2.575652865E0,7.579716682E0,5.913423896E-1,1.580105126E-1
2.578084115E0,7.282848358E0,6.751358509E-1,3.662970960E-1
2.580515313E0,7.100896835E0,7.062591314E-1,5.099430084E-1
2.582945729E0,7.019497395E0,6.918945909E-1,6.990768313E-1
2.585376146E0,6.765723228E0,7.110472918E-1,7.613233924E-1
2.587807344E0,6.650806427E0,6.583771110E-1,7.756879926E-1
2.590238594E0,6.301268101E0,9.552453756E-1,6.942886114E-1
2.592668959E0,6.167198658E0,9.791863561E-1,4.931843579E-1
2.595099375E0,6.224656582E0,8.929988146E-1,4.141790867E-1
2.597530625E0,6.310844421E0,9.360926151E-1,6.248597503E-1
2.599961823E0,6.329997063E0,1.012703776E0,7.924466729E-1
2.602392188E0,6.516736984E0,1.034250736E0,6.344361901E-1
2.604822604E0,6.365908623E0,1.326330781E0,4.261495769E-1
2.607253854E0,6.349150181E0,1.584893346E0,2.848977447E-1
2.609685052E0,6.440125465E0,1.673475027E0,1.388577372E-1
2.612115469E0,6.138469219E0,1.627987146E0,5.027607456E-2
2.614545886E0,5.738654613E0,1.630381227E0,-2.202570736E-1
2.616977084E0,5.219135284E0,1.702204227E0,-3.734793961E-1
2.619408334E0,4.804955959E0,1.845850110E0,-4.524846673E-1
2.621838698E0,4.381200314E0,2.113989353E0,-4.955784380E-1
2.624269115E0,4.137002945E0,2.370157719E0,-1.292813420E-1
2.626700365E0,4.048420906E0,2.389310598E0,3.136269450E-1
2.629131563E0,4.814532280E0,1.977525592E0,7.182296515E-1
2.631561927E0,5.781748295E0,1.285630941E0,1.232960820E0
2.633992344E0,6.966827393E0,4.476964772E-1,1.055797458E0
2.636423594E0,7.907708168E0,-2.489862591E-1,1.027068377E0
2.638854792E0,8.716914177E0,-6.966827512E-1,1.273660541E0
2.641285209E0,9.957056999E0,-1.213808179E0,1.565740585E0
2.643715625E0,1.028744221E1,-1.149167418E0,1.843456030E0
2.646146823E0,1.011027908E1,-1.165926099E0,9.791863561E-1
2.648578073E0,1.034490108E1,-1.311966181E0,3.471443057E-1
2.651008438E0,1.053882313E1,-1.355059862E0,3.830558062E-1
2.653438854E0,1.117325878E1,-1.400547743E0,7.014709115E-1
2.655870104E0,1.169517231E1,-1.465188384E0,8.522991538E-1
2.658301302E0,1.181248283E1,-1.537011385E0,1.771633178E-1
2.660731667E0,1.226257420E1,-1.596863866E0,-7.182296365E-3
2.663162084E0,1.250916576E1,-1.508282304E0,5.650073290E-1
2.665593334E0,1.212611008E1,-1.074950337E0,9.983391762E-1
2.668024532E0,1.167362499E1,-7.397764921E-1,1.283236861E0
2.670454948E0,1.177657223E1,-8.762401342E-1,1.371818662E0
2.672885365E0,1.185318279E1,-1.034250736E0,1.311966181E0
2.675316563E0,1.145576286E1,-1.106073618E0,1.053403497E0
2.677747813E0,1.175741863E1,-1.340695262E0,5.554309487E-1
2.680178177E0,1.155631542E1,-1.261690021E0,-4.141790867E-1
2.682608594E0,1.133605766E1,-1.029462457E0,-7.541411519E-1
2.685039844E0,1.066810417E1,-7.613233924E-1,-7.493529320E-1
2.687471042E0,9.617094994E0,-3.160210252E-1,-9.049693346E-1
2.689901407E0,7.828702927E0,5.793718696E-1,-6.464067101E-1
2.692331823E0,8.257246971E0,6.775299311E-1,9.839745760E-1
2.694763073E0,9.978604317E0,7.661115378E-2,1.479552984E0
2.697194271E0,1.003606224E1,0.000000000E0,8.618755341E-1
2.699624688E0,9.870868683E0,-6.703476608E-2,7.110472918E-1
2.702055104E0,1.017492008E1,-2.633508742E-1,6.990768313E-1
2.704486302E0,1.009830856E1,-3.902381063E-1,4.309377670E-1
2.706917552E0,9.722434998E0,-4.692433476E-1,6.559830904E-1
2.709347917E0,8.767189980E0,-2.106806934E-1,6.152833700E-1
2.711778334E0,8.053748131E0,-1.388577372E-1,9.289103150E-1
2.714209584E0,7.603657722E0,-1.077344418E-1,1.247325540E0
2.716640782E0,7.543805122E0,-1.939219981E-1,1.235355020E0
2.719071146E0,8.367375374E0,-6.344361901E-1,1.194655299E0
2.721501563E0,9.147850990E0,-1.062979817E0,4.046026766E-1
2.723932813E0,9.387261391E0,-1.501099825E0,1.580105126E-1
2.726364011E0,9.794258118E0,-1.991890073E0,6.200715899E-1
2.728794427E0,9.432748795E0,-1.912884831E0,3.519325256E-1
2.731224844E0,8.841406822E0,-2.006254673E0,5.147312284E-1
2.733656042E0,8.424833298E0,-2.049348593E0,7.996289730E-1
2.736087292E0,8.130359650E0,-2.238482237E0,1.228172660E0
2.738517657E0,7.788002968E0,-2.312699556E0,3.327797055E-1
2.740948073E0,7.376217842E0,-2.403675318E0,1.197049394E-2
2.743379323E0,7.402553558E0,-2.791519165E0,5.506426692E-1
2.745810521E0,8.094448090E0,-3.488201857E0,1.079738498E0
2.748240886E0,9.095181465E0,-4.500905514E0,1.709386468E0
2.750671302E0,1.034250736E1,-5.290957928E0,1.058191657E0
2.753102552E0,1.140548611E1,-5.832024574E0,3.519325256E-1
2.755533750E0,1.209738064E1,-6.181562901E0,2.633508667E-2
2.757964167E0,1.258577728E1,-6.423367023E0,-3.375679255E-1
2.760394584E0,1.301671505E1,-6.562224388E0,-4.836079478E-1
2.762825782E0,1.316514874E1,-6.557436466E0,-1.580105126E-1
2.765257032E0,1.287306881E1,-6.401820183E0,4.788197111E-3
2.767687396E0,1.246367836E1,-6.174380302E0,3.591148183E-2
2.770117813E0,1.239185524E1,-5.956517696E0,2.178629786E-1
2.772549063E0,1.235594368E1,-5.738654613E0,1.699810177E-1
2.774980261E0,1.203752899E1,-5.427422047E0,1.604046077E-1
2.777410625E0,1.158504391E1,-4.972542763E0,1.987102032E-1
2.779841042E0,1.116368198E1,-4.764256477E0,3.950262666E-1
2.782272292E0,1.090751362E1,-4.582304955E0,3.232033551E-1
2.784703490E0,1.076626205E1,-4.488934994E0,2.777154744E-1
2.787133907E0,1.054600525E1,-4.448235512E0,4.596669674E-1
2.789564323E0,1.042869377E1,-4.431477070E0,4.069967866E-1
2.791995521E0,1.038799381E1,-4.445841312E0,4.955784380E-1
2.794426771E0,1.048615265E1,-4.421900272E0,5.243076086E-1
2.796857136E0,1.031617165E1,-4.321348190E0,5.075489283E-1
2.799287552E0,1.008394432E1,-4.227978706E0,4.788197577E-1
2.801718802E0,9.935509682E0,-4.048420906E0,5.985246897E-1
2.804150000E0,9.796651840E0,-3.861681223E0,6.511948705E-1
2.806580365E0,9.708069801E0,-3.708458900E0,6.918945909E-1
2.809010782E0,9.535695076E0,-3.459472656E0,6.128892303E-1
2.811442032E0,9.459083557E0,-3.346950054E0,6.966827512E-1
2.813873229E0,9.471055031E0,-3.397226095E0,6.990768313E-1
2.816303646E0,9.423172951E0,-3.308644533E0,6.966827512E-1
2.818734063E0,9.480630875E0,-3.196121693E0,4.572728872E-1
2.821165261E0,9.595547676E0,-3.136269331E0,4.620610774E-1
2.823596511E0,9.485419273E0,-3.131481171E0,5.626131892E-1
2.826026875E0,9.425566673E0,-3.133875132E0,4.548787475E-1
2.828457292E0,9.387261391E0,-3.131481171E0,3.471443057E-1
2.830888490E0,9.248402596E0,-3.071628809E0,2.872918546E-1
2.833319740E0,9.344166756E0,-3.258368492E0,3.926321864E-1
2.835750104E0,9.372897148E0,-3.521719217E0,4.524846673E-1
2.838180521E0,9.387261391E0,-3.756340981E0,3.208092153E-1
2.840611771E0,9.341773033E0,-4.129820347E0,2.968682647E-1
2.843042969E0,9.415989876E0,-4.496117592E0,3.974204063E-1
2.845473386E0,9.471055031E0,-4.934237480E0,3.232033551E-1
2.847903802E0,9.566819191E0,-5.436998367E0,2.920800745E-1
2.850335000E0,9.576395035E0,-6.006793976E0,2.011042982E-1
2.852766198E0,9.514147758E0,-6.409002304E0,1.197049394E-1
2.855196615E0,9.463871956E0,-6.684323311E0,7.182296365E-3
2.857627032E0,9.372897148E0,-6.976403713E0,1.580105126E-1
2.860058229E0,9.104758263E0,-7.143990517E0,3.639029860E-1
2.862489479E0,8.903653145E0,-7.239754677E0,4.333318770E-1
2.864919844E0,8.853377342E0,-7.467194080E0,4.955784380E-1
2.867350261E0,8.872529984E0,-7.560564041E0,5.195194483E-1
2.869781511E0,8.918018341E0,-7.639568806E0,5.027607679E-1
2.872212709E0,8.788737297E0,-7.689845085E0,5.817660093E-1
2.874643125E0,8.645091057E0,-7.699421406E0,8.642696142E-1
2.877073542E0,8.613966942E0,-7.816732407E0,9.360926151E-1
2.879504740E0,8.724096298E0,-8.001077652E0,1.084526777E0
2.881935938E0,8.688183784E0,-8.247670174E0,9.384866953E-1
2.884366354E0,8.688183784E0,-8.465533257E0,8.475109339E-1
2.886796771E0,8.592419624E0,-8.508626938E0,7.613233924E-1
2.889227969E0,8.810282707E0,-8.585238457E0,8.163877130E-1
2.891659219E0,8.803100586E0,-8.585238457E0,7.517470121E-1
2.894089584E0,8.795919418E0,-8.458351135E0,5.985246897E-1
2.896520000E0,8.558902740E0,-8.238094330E0,3.615089059E-1
2.898951250E0,8.546933174E0,-8.065718651E0,3.447502255E-1
2.901382448E0,8.417651176E0,-7.680268764E0,3.471443057E-1
2.903812813E0,8.379345894E0,-7.460011482E0,3.327797055E-1
2.906243229E0,8.384134293E0,-7.194266319E0,2.657449543E-1
2.908674479E0,8.364980698E0,-6.880640030E0,2.394098788E-1
2.911105677E0,8.317098618E0,-6.535889626E0,3.040505350E-1
2.913536094E0,8.235699654E0,-6.250991821E0,3.615089059E-1
2.915966511E0,8.180635452E0,-6.002005577E0,4.285436869E-1
2.918397709E0,8.056142807E0,-5.733866692E0,4.141790867E-1
2.920828959E0,7.991501331E0,-5.506426811E0,5.219135284E-1
2.923259323E0,7.859826088E0,-5.262228966E0,5.410662889E-1
2.925689740E0,7.823914528E0,-5.089853764E0,5.243076086E-1
2.928120990E0,7.821520329E0,-4.946208000E0,3.758735061E-1
2.930552188E0,7.850249767E0,-4.824109077E0,2.681390643E-1
2.932982552E0,7.871796608E0,-4.802562237E0,1.173108369E-1
2.935412969E0,7.838279724E0,-4.831291676E0,-4.788197111E-3
2.937844219E0,7.833490849E0,-4.900720119E0,-4.548787326E-2
2.940275417E0,7.852643967E0,-4.946208000E0,-1.197049394E-2
2.942705834E0,7.847855568E0,-5.070701122E0,-4.069967940E-2
2.945136250E0,7.749697685E0,-5.199982643E0,1.197049394E-2
2.947567448E0,7.744909286E0,-5.149706364E0,1.987102032E-1
2.949998646E0,7.744909286E0,-5.199982643E0,2.513803840E-1
2.952429063E0,7.694633484E0,-5.245470524E0,2.801095545E-1
2.954859479E0,7.634780884E0,-5.223923683E0,3.327797055E-1
2.957290729E0,7.639568806E0,-5.286170006E0,3.375679255E-1
2.959721927E0,7.486347198E0,-5.269411564E0,2.609567642E-1
2.962152292E0,7.450435638E0,-5.216741085E0,2.777154744E-1
2.964582709E0,7.495923042E0,-5.063519001E0,3.375679255E-1
2.967013959E0,7.562957764E0,-5.044365883E0,3.184151351E-1
2.969445157E0,7.591687202E0,-5.063519001E0,2.418039739E-1
2.971875573E0,7.572534561E0,-5.168859005E0,1.220990419E-1
2.974305990E0,7.723362446E0,-5.362781048E0,1.484341323E-1
2.976737188E0,7.989107609E0,-5.561491489E0,3.591148257E-1
2.979168386E0,8.159088135E0,-5.753019333E0,3.255974352E-1
2.981598802E0,8.242881775E0,-5.920606136E0,3.040505350E-1
2.984029219E0,8.288370132E0,-6.059463978E0,4.117850065E-1
2.986460417E0,8.338645935E0,-6.150439262E0,6.607712507E-1
2.988891667E0,8.432016373E0,-6.322814941E0,5.410662889E-1
2.991322032E0,8.432016373E0,-6.468854904E0,6.416184306E-1
2.993752448E0,8.374557495E0,-6.552648544E0,8.451168537E-1
2.996183698E0,8.386528015E0,-6.768116951E0,8.331463933E-1
2.998614896E0,8.297946930E0,-6.940492630E0,2.729272544E-1
3.001045261E0,8.115995407E0,-7.053015232E0,6.942886114E-1
3.003475677E0,8.120782852E0,-7.165537357E0,1.094103098E0
3.005906927E0,8.013048172E0,-7.306789398E0,1.182684779E0
3.008338125E0,7.979530811E0,-7.364247322E0,1.199443460E0
3.010768542E0,7.943619728E0,-7.486347198E0,1.089314818E0
3.013198959E0,7.744909286E0,-7.560564041E0,1.206625700E0
3.015630157E0,7.790397644E0,-7.663509846E0,1.240143180E0
3.018061354E0,7.799973488E0,-7.697027683E0,1.276054621E0
3.020491771E0,7.905313969E0,-7.661116123E0,1.086920857E0
3.022922188E0,7.902919769E0,-7.594080925E0,6.727417707E-1
3.025353386E0,7.464799881E0,-7.594080925E0,1.201837659E0
3.027784636E0,7.407341480E0,-7.565351963E0,1.120438218E0
3.030215000E0,7.239754677E0,-7.426494598E0,1.046221137E0
3.032645417E0,7.199055195E0,-7.378612518E0,7.900525331E-1
3.035076667E0,7.191872597E0,-7.280454636E0,3.615089059E-1
3.037507865E0,7.213419437E0,-7.163143635E0,5.985246971E-2
3.039938229E0,7.270877838E0,-6.974009514E0,1.651928127E-1
3.042368646E0,7.469587803E0,-6.832757950E0,1.388577372E-1
3.044799896E0,7.622810364E0,-6.741782188E0,1.939219981E-1
3.047231094E0,7.596475601E0,-6.660382271E0,3.112328351E-1
3.049661511E0,7.620416641E0,-6.543072224E0,3.088387549E-1
3.052091927E0,7.673086643E0,-6.523919106E0,2.872918546E-1
3.054523125E0,7.697027683E0,-6.485613346E0,2.394098788E-1
3.056954375E0,7.828702927E0,-6.509554386E0,1.819514930E-1
3.059384740E0,7.934042931E0,-6.538283348E0,2.872918546E-2
3.061815157E0,8.039383888E0,-6.547860146E0,-2.298334837E-1
3.064246407E0,8.051354408E0,-6.511948586E0,-3.902381063E-1
3.066677604E0,8.223729134E0,-6.483219624E0,-4.596669674E-1
3.069107969E0,8.484685898E0,-6.440125465E0,-4.860020280E-1
3.071538386E0,8.767189980E0,-6.473642826E0,-4.620610774E-1
3.073969636E0,9.016176224E0,-6.547860146E0,-3.758735061E-1
3.076400834E0,8.975476265E0,-6.588560104E0,-1.795574129E-1
3.078831198E0,8.618755341E0,-6.538283348E0,3.112328239E-2
3.081261615E0,8.120782852E0,-6.466460705E0,8.858165890E-2
3.083692865E0,7.704209805E0,-6.353938103E0,1.029462516E-1
3.086124063E0,7.397765160E0,-6.320420265E0,7.182296365E-2
3.088554479E0,7.270877838E0,-6.253386021E0,7.900525630E-2
3.090984896E0,7.196660995E0,-6.236627102E0,1.005521491E-1
3.093416094E0,7.127232075E0,-6.203110218E0,1.436459273E-1
3.095847344E0,7.220602036E0,-6.188745499E0,1.675869077E-1
3.098277709E0,7.364247322E0,-6.195927620E0,1.699810177E-1
3.100708125E0,7.572534561E0,-6.270144463E0,1.029462516E-1
3.103139375E0,7.720968723E0,-6.310844421E0,0.000000000E0
3.105570573E0,7.814338684E0,-6.260568142E0,-9.576394223E-3
3.108000938E0,7.792791367E0,-6.176774979E0,9.576394223E-3
3.110431354E0,7.816732407E0,-6.150439262E0,-4.309377819E-2
3.112862604E0,7.713786125E0,-6.126498699E0,-3.830557689E-2
3.115293802E0,7.440858841E0,-6.035522938E0,2.394098788E-2
3.117724219E0,7.409735680E0,-6.088192940E0,-8.618755639E-2
3.120154636E0,7.129625797E0,-6.066646099E0,-2.130747885E-1
3.122585834E0,6.923733711E0,-6.030734539E0,-2.801095545E-1
3.125017032E0,6.859093189E0,-6.076222420E0,-3.208092153E-1
3.127447448E0,7.024285316E0,-6.243809700E0,-5.195194483E-1
3.129877865E0,7.191872597E0,-6.447308064E0,-6.344361901E-1
3.132309063E0,7.254118919E0,-6.521524906E0,-6.128892303E-1
3.134740313E0,7.218207359E0,-6.511948586E0,-6.128892303E-1
3.137170677E0,7.141596317E0,-6.516736984E0,-6.751358509E-1
3.139601094E0,7.129625797E0,-6.588560104E0,-7.565351725E-1
3.142032344E0,7.230177879E0,-6.653200626E0,-7.613233924E-1
3.144463542E0,7.359459400E0,-6.727417469E0,-6.990768313E-1
3.146893907E0,7.522258282E0,-6.827969551E0,-6.966827512E-1
3.149324323E0,7.469587803E0,-6.780087471E0,-5.913423896E-1
3.151755573E0,7.462406158E0,-6.717841148E0,-5.362781286E-1
3.154186771E0,7.495923042E0,-6.631653309E0,-3.639029860E-1
3.156617188E0,7.603657722E0,-6.533495426E0,-2.657449543E-1
3.159047604E0,7.737727165E0,-6.409002304E0,-1.029462516E-1
3.161478802E0,7.919678688E0,-6.255780220E0,-2.154688910E-2
3.163910000E0,8.044172287E0,-6.059463978E0,1.915278845E-2
3.166340417E0,8.118389130E0,-5.973276615E0,3.112328239E-2
3.168770834E0,8.104024887E0,-5.860753536E0,-2.394098556E-3
3.171202032E0,8.135147095E0,-5.846388817E0,-1.915278845E-2
3.173633282E0,8.106418610E0,-5.817659855E0,2.394098788E-2
3.176063646E0,8.056142807E0,-5.762595654E0,-4.548787326E-2
3.178494063E0,8.001077652E0,-5.659649372E0,-1.460400373E-1
3.180925261E0,7.847855568E0,-5.523186207E0,-2.513803840E-1
3.183356511E0,7.766456604E0,-5.456151009E0,-3.567207158E-1
3.185786875E0,7.639568806E0,-5.381934166E0,-4.931843579E-1
3.188217292E0,7.500711441E0,-5.281382084E0,-6.176775098E-1
3.190648542E0,7.381006718E0,-5.209558964E0,-7.302001119E-1
3.193079740E0,7.297213078E0,-5.125765324E0,-8.187817335E-1
3.195510104E0,7.148778915E0,-4.924661160E0,-9.336984754E-1
3.197940521E0,6.990768433E0,-4.642157555E0,-1.046221137E0
3.200371771E0,6.569406986E0,-3.986174583E0,-1.513070345E0
3.202802969E0,5.870329857E0,-3.148239851E0,-1.642351747E0
3.205233386E0,5.202376366E0,-2.439586401E0,-1.513070345E0
3.207663802E0,4.761862278E0,-1.783603668E0,-1.345483541E0
3.210095000E0,4.555970192E0,-1.333513021E0,-1.153955579E0
3.212526198E0,4.615822315E0,-1.206625700E0,-1.125226378E0
3.214956615E0,4.876779079E0,-1.297601461E0,-1.151561499E0
3.217387032E0,5.238287926E0,-1.577711105E0,-1.185078859E0
3.219818229E0,5.832024574E0,-2.049348593E0,-1.225778461E0
3.222249479E0,6.586165428E0,-2.690967083E0,-1.347877622E0
3.224679844E0,7.268484116E0,-3.358920574E0,-1.321542501E0
3.227110261E0,7.979530811E0,-4.146578789E0,-1.189867139E0
3.229541511E0,8.716914177E0,-4.910296440E0,-1.019886017E0
3.231972709E0,9.169398308E0,-5.523186207E0,-7.469587922E-1
3.234403073E0,9.483024597E0,-6.006793976E0,-5.674013495E-1
3.236833490E0,9.542878151E0,-6.332390785E0,-3.974204063E-1
3.239264740E0,9.475843430E0,-6.569406986E0,-3.327797055E-1
3.241695938E0,9.597942352E0,-6.861486912E0,-1.244931296E-1
3.244126354E0,9.633852959E0,-7.124837875E0,7.661115378E-2
3.246556771E0,9.626670837E0,-7.163143635E0,1.436459273E-1
3.248987969E0,9.758345604E0,-7.318759918E0,3.327797055E-1
3.251419167E0,9.820592880E0,-7.280454636E0,4.046026766E-1
3.253849584E0,9.806227684E0,-7.215813637E0,3.974204063E-1
3.256280000E0,9.854109764E0,-7.167931557E0,3.303856254E-1
3.258711198E0,9.935509682E0,-7.057803154E0,2.920800745E-1
3.261142448E0,1.009830856E1,-7.103291035E0,2.705331445E-1
3.263572813E0,1.046939373E1,-7.179902077E0,2.777154744E-1
3.266003229E0,1.082371998E1,-7.333124638E0,2.489862591E-1
3.268434479E0,1.107031345E1,-7.373824120E0,2.106806934E-1
3.270865677E0,1.115649986E1,-7.335518360E0,2.489862591E-1
3.273296042E0,1.107031345E1,-7.129625797E0,2.513803840E-1
3.275726459E0,1.084287262E1,-6.940492630E0,2.370157838E-1
3.278157709E0,1.048136425E1,-6.669959068E0,2.106806934E-1
3.280588907E0,9.906781197E0,-6.224656582E0,3.160210252E-1
3.283019271E0,9.351349831E0,-5.764989853E0,3.208092153E-1
3.285449688E0,8.846195221E0,-5.415451527E0,2.872918546E-1
3.287880938E0,8.499051094E0,-5.142523766E0,2.274393737E-1
3.290312136E0,8.185423851E0,-4.931843281E0,1.556164175E-1
3.292742552E0,7.984319687E0,-4.692433357E0,9.336984903E-2
3.295172969E0,7.776032448E0,-4.543999672E0,2.633508667E-2
3.297604167E0,7.656328201E0,-4.374018669E0,-7.421706617E-2
3.300035365E0,7.558169365E0,-4.239949226E0,-3.591148183E-2
3.302465782E0,7.510287762E0,-4.101091385E0,-9.336984903E-2
3.304896198E0,7.409735680E0,-3.959839344E0,-9.576394223E-3
3.307327448E0,7.354671478E0,-3.797040462E0,3.591148183E-2
3.309758646E0,7.242148399E0,-3.634242058E0,2.872918546E-2
3.312189011E0,7.222996235E0,-3.521719217E0,5.985246971E-2
3.314619427E0,7.213419437E0,-3.413984776E0,1.101285368E-1
3.317050677E0,7.249330997E0,-3.287097454E0,1.460400373E-1
3.319481875E0,7.261301517E0,-3.267944813E0,1.723751128E-1
3.321912240E0,7.325942039E0,-3.287097454E0,2.034983933E-1
3.324342657E0,7.383400440E0,-3.299067974E0,1.723751128E-1
3.326773907E0,7.366641998E0,-3.373285294E0,2.226511836E-1
3.329205104E0,7.275666237E0,-3.394831896E0,2.178629786E-1
3.331635521E0,7.105685234E0,-3.342161655E0,1.843456030E-1
3.334065938E0,7.024285316E0,-3.303856134E0,1.436459273E-1
3.336497136E0,7.012314796E0,-3.244003773E0,2.226511836E-1
3.338928334E0,7.208631516E0,-3.287097454E0,2.489862591E-1
3.341358750E0,7.388188362E0,-3.368496895E0,2.705331445E-1
3.343789167E0,7.548593521E0,-3.540872097E0,2.513803840E-1
3.346220365E0,7.673086643E0,-3.593542337E0,1.340695322E-1
3.348651615E0,7.740120888E0,-3.730005741E0,-3.830557689E-2
3.351081979E0,7.931649208E0,-3.938292503E0,-1.077344418E-1
3.353512396E0,7.943619728E0,-4.034056664E0,-3.112328351E-1
3.355943594E0,7.962772369E0,-4.077150345E0,-3.974204063E-1
3.358374844E0,7.914890289E0,-4.086726665E0,-5.602191091E-1
3.360805209E0,7.881372929E0,-4.062785625E0,-7.158355117E-1
3.363235625E0,7.795185566E0,-4.024479866E0,-9.049693346E-1
3.365666875E0,7.608446121E0,-4.019691944E0,-9.121516347E-1
3.368098073E0,7.462406158E0,-3.923927784E0,-1.010309696E0
3.370528438E0,7.297213078E0,-3.854499102E0,-1.158743739E0
3.372958854E0,7.179902077E0,-3.799434662E0,-1.271266341E0
3.375390104E0,6.988374233E0,-3.710853100E0,-1.237748981E0
3.377821302E0,6.835152149E0,-3.672547579E0,-1.285630941E0
3.380251667E0,6.583771706E0,-3.588753939E0,-1.283236861E0
3.382682084E0,6.526312828E0,-3.591147900E0,-1.295207381E0
3.385113334E0,6.511948586E0,-3.509748697E0,-1.252113581E0
3.387544532E0,6.461672306E0,-3.564812899E0,-1.280842900E0
3.389974948E0,6.447308064E0,-3.564812899E0,-1.280842900E0
3.392405365E0,6.389849663E0,-3.548054218E0,-1.364636302E0
3.394836563E0,6.329997063E0,-3.497778177E0,-1.398153663E0
3.397267813E0,6.332390785E0,-3.421166897E0,-1.350271702E0
3.399698177E0,6.346755981E0,-3.521719217E0,-1.146773219E0
3.402128594E0,6.308450222E0,-3.576783419E0,-1.070162177E0
3.404559792E0,6.401820183E0,-3.598330498E0,-1.074950337E0
3.406991042E0,6.559830666E0,-3.730005741E0,-9.696099758E-1
3.409421407E0,6.459278584E0,-3.830558062E0,-1.072556257E0
3.411851823E0,6.325209141E0,-3.859287262E0,-1.139590979E0
3.414283073E0,6.365908623E0,-3.945474863E0,-1.043827057E0
3.416714271E0,6.284509182E0,-4.048420906E0,-8.858165741E-1
3.419144636E0,6.171986580E0,-4.115455627E0,-8.283581734E-1
3.421575052E0,6.097769737E0,-4.120244026E0,-8.858165741E-1
3.424006302E0,6.157621861E0,-4.137002945E0,-7.182296515E-1
3.426437500E0,6.195927620E0,-4.239949226E0,-5.937365294E-1
3.428867865E0,6.157621861E0,-4.292619228E0,-5.003666282E-1
3.431298282E0,6.045099735E0,-4.350077629E0,-3.232033551E-1
3.433729532E0,6.009188175E0,-4.539210796E0,-3.088387549E-1
3.436160729E0,5.903847694E0,-4.678069115E0,-2.968682647E-1
3.438591146E0,5.855965614E0,-4.694827557E0,-4.333318770E-1
3.441021563E0,5.724289894E0,-4.613428593E0,-3.495384157E-1
3.443452761E0,5.592614651E0,-4.618216515E0,-3.495384157E-1
3.445884011E0,5.434604168E0,-4.644551277E0,-4.572728872E-1
3.448314375E0,5.312504768E0,-4.551181316E0,-4.572728872E-1
3.450744792E0,5.018031120E0,-4.517664433E0,-4.309377670E-1
3.453175990E0,4.848050117E0,-4.517664433E0,-3.782675862E-1
3.455607240E0,4.570334435E0,-4.618216515E0,-3.327797055E-1
3.458037604E0,4.208825588E0,-4.634974957E0,-2.872918546E-1
3.460468021E0,4.340500832E0,-5.109006405E0,-1.580105126E-1
3.462899271E0,4.608640194E0,-5.587826729E0,1.197049394E-2
3.465330469E0,5.037183762E0,-6.531101704E0,5.075489283E-1
3.467760834E0,5.939758778E0,-7.998683929E0,9.863687158E-1
3.470191250E0,6.622076988E0,-9.111940384E0,1.010309696E0
3.472622500E0,7.139202595E0,-9.887627602E0,5.314899087E-1
3.475053698E0,6.976403713E0,-1.008394432E1,2.322275788E-1
3.477484063E0,6.780087471E0,-1.030180740E1,-7.900525630E-2
3.479914479E0,6.409002304E0,-1.034490108E1,-4.931843579E-1
3.482345729E0,5.934970856E0,-1.044545269E1,-6.009188294E-1
3.484776927E0,5.365175724E0,-1.063219261E1,-5.674013495E-1
3.487207344E0,5.195194721E0,-1.091230202E1,-5.195194483E-1
3.489637761E0,5.147312641E0,-1.129775238E1,-4.668492377E-1
3.492068959E0,4.948602200E0,-1.150843334E1,-5.865541697E-1
3.494500157E0,4.915084362E0,-1.196809959E1,-2.274393737E-1
3.496930573E0,4.979725361E0,-1.215244484E1,1.987102032E-1
3.499360990E0,4.661310673E0,-1.186994171E1,8.522991538E-1
3.501792188E0,4.735527515E0,-1.176938915E1,1.228172660E0
3.504223386E0,4.651733875E0,-1.112298298E1,1.503494024E0
3.506653802E0,4.249525547E0,-1.055797482E1,1.613622546E0
3.509084219E0,4.259101391E0,-1.019646740E1,1.774027109E0
3.511515417E0,4.273466587E0,-9.791864395E0,1.750086069E0
3.513946667E0,4.290225029E0,-9.372897148E0,1.692627907E0
3.516377032E0,4.268678188E0,-8.920412064E0,1.572922826E0
3.518807448E0,4.342895031E0,-8.163876534E0,1.388577223E0
3.521238698E0,4.263889790E0,-7.517469883E0,9.815804958E-1
3.523669896E0,4.050815105E0,-6.801634312E0,8.906047344E-1
3.526100261E0,3.665365219E0,-6.042705059E0,8.403286934E-1
3.528530677E0,3.413984776E0,-5.434604168E0,9.217280149E-1
3.530961927E0,3.215274572E0,-4.381200314E0,5.626131892E-1
3.533393125E0,2.906435966E0,-3.394831896E0,8.858165890E-2
3.535823490E0,2.061319113E0,-2.209753275E0,-4.620610774E-1
3.538253907E0,6.344361901E-1,-8.786342740E-1,-1.180290580E0
3.540685157E0,-1.311966181E0,7.756879926E-1,-2.023013592E0
3.543116354E0,-2.743637323E0,1.168320298E0,-2.286364317E0
3.545546771E0,-2.832218647E0,6.871063113E-1,-2.075683594E0
3.547977188E0,-2.705331564E0,5.745837092E-2,-1.809938669E0
3.550408386E0,-2.243270397E0,-7.397764921E-1,-1.728539228E0
3.552839584E0,-1.778815389E0,-1.558558226E0,-1.860214710E0
3.555270000E0,-1.400547743E0,-1.939219952E0,-2.039772034E0
3.557700417E0,-1.364636302E0,-2.082865953E0,-1.817121029E0
3.560131615E0,-1.472370744E0,-2.221723795E0,-1.034250736E0
3.562562813E0,-1.718962908E0,-2.446768999E0,4.548787326E-2
3.564993229E0,-1.965555072E0,-2.599991322E0,1.062979817E0
3.567423646E0,-1.656716347E0,-2.923194408E0,1.651928067E0
3.569854844E0,-1.106073618E0,-3.375679255E0,2.236088276E0
3.572286094E0,-7.852643728E-1,-3.753946781E0,2.633508444E0
3.574716459E0,-4.500905573E-1,-4.362048149E0,3.167392731E0
3.577146875E0,-2.130747885E-1,-4.723556995E0,3.430743456E0
3.579578125E0,-1.627987176E-1,-4.953390598E0,3.440320015E0
3.582009323E0,8.379345387E-2,-5.305323124E0,3.380467415E0
3.584439688E0,1.747692078E-1,-5.626132011E0,3.255974293E0
3.586870104E0,1.364636272E-1,-5.803295612E0,2.992623568E0
3.589301354E0,1.747692078E-1,-6.102557659E0,2.592808962E0
3.591732552E0,4.309377819E-2,-6.480825424E0,2.157083035E0
3.594162917E0,-1.915279031E-1,-6.736993790E0,1.817121029E0
3.596593334E0,-3.734793961E-1,-6.983585835E0,1.750086069E0
3.599024584E0,-5.482486486E-1,-7.024285316E0,1.575317025E0
3.601455782E0,-8.139935732E-1,-7.213419437E0,1.309571981E0
3.603886146E0,-9.073634148E-1,-7.416917801E0,1.024674296E0
3.606316563E0,-9.959450364E-1,-7.476770401E0,7.086532712E-1
3.608747813E0,-1.213808179E0,-7.448040962E0,4.046026766E-1
3.611179011E0,-1.426882863E0,-7.507893562E0,2.968682647E-1
3.613609427E0,-1.565740585E0,-7.711391926E0,3.734793961E-1
3.616039844E0,-1.599257946E0,-7.902919769E0,2.561685741E-1
3.618471042E0,-1.398153663E0,-8.230911255E0,-3.040505350E-1
3.620902240E0,-1.225778461E0,-8.592419624E0,-1.089314818E0
3.623332657E0,-1.043827057E0,-8.597208977E0,-1.194655299E0
3.625763073E0,-6.703476310E-1,-8.616360664E0,-1.254507780E0
3.628194271E0,1.230566740E0,-9.875657082E0,-1.321542501E0
3.630625469E0,2.662237644E0,-1.218835735E1,-1.987102032E0
3.633055886E0,3.775493860E0,-1.433586311E1,-2.408463240E0
3.635486302E0,5.930182457E0,-1.830767441E1,-1.862608910E0
3.637917500E0,8.142330170E0,-2.573656273E1,-2.537744761E0
3.640348750E0,9.954663277E0,-3.457078552E1,-4.630187035E0
3.642779115E0,1.245649624E1,-4.263411331E1,-6.732205391E0
3.645209532E0,1.406293583E1,-4.903832245E1,-7.182295799E0
3.647640782E0,1.485059547E1,-5.138454056E1,-7.041044712E0
3.650071979E0,1.558318901E1,-5.164310455E1,-6.626865387E0
3.652502344E0,1.586329842E1,-5.036704636E1,-6.052281380E0
3.654932761E0,1.583696270E1,-4.788197708E1,-5.487274647E0
3.657364011E0,1.399111271E1,-4.241146088E1,-5.458545208E0
3.659795209E0,9.667370796E0,-3.506875992E1,-6.531101704E0
3.662225573E0,4.891143322E0,-2.848737907E1,-6.143257618E0
3.664655990E0,2.676602602E0,-2.445571709E1,-5.049154282E0
3.667087240E0,2.937559366E0,-2.269366264E1,-4.666098595E0
3.669518438E0,4.026874065E0,-2.150379372E1,-4.292619228E0
3.671948802E0,4.036450386E0,-1.927009964E1,-4.218401909E0
3.674379219E0,4.012509346E0,-1.696458435E1,-4.196855068E0
3.676810469E0,4.223189831E0,-1.500142288E1,-3.619877338E0
3.679241667E0,4.496117592E0,-1.334470558E1,-3.023746729E0
3.681672032E0,4.771439075E0,-1.209738064E1,-2.348610640E0
3.684102448E0,4.740315437E0,-1.076626205E1,-1.793179989E0
3.686533698E0,4.646945477E0,-9.657793999E0,-1.448429704E0
3.688964896E0,4.335712910E0,-8.508626938E0,-1.242537260E0
3.691395313E0,4.046027184E0,-7.603657722E0,-1.041432977E0
3.693825729E0,3.868863583E0,-6.885427952E0,-8.929988146E-1
3.696256927E0,3.832952023E0,-6.406608105E0,-9.432749152E-1
3.698688125E0,4.012509346E0,-6.140863419E0,-1.003127337E0
3.701118542E0,4.350077629E0,-6.016369820E0,-6.655594110E-1
3.703548959E0,4.536817074E0,-5.805689335E0,-2.944741547E-1
3.705980157E0,4.603851795E0,-5.484879971E0,-5.267017335E-2
3.708411407E0,4.551181316E0,-5.235894203E0,8.858165890E-2
3.710841771E0,4.563151836E0,-5.092247963E0,2.585626841E-1
3.713272188E0,4.472176552E0,-5.001272678E0,3.854499161E-1
3.715703386E0,4.328530312E0,-4.943813801E0,5.530368090E-1
3.718134636E0,4.077150345E0,-4.905508518E0,6.440125704E-1
3.720565000E0,3.820981503E0,-4.972542763E0,6.751358509E-1
3.722995417E0,3.464261055E0,-5.221529484E0,7.349883318E-1
3.725426667E0,2.935164928E0,-5.539944649E0,7.948408127E-1
3.727857865E0,2.200176716E0,-5.934970856E0,7.924466729E-1
3.730288229E0,1.525040865E0,-6.428154945E0,6.942886114E-1
3.732718646E0,1.000733256E0,-6.976403713E0,5.434604287E-1
3.735149896E0,5.817660093E-1,-7.574928284E0,4.261495769E-1
3.737581094E0,3.686912060E-1,-8.204576492E0,3.662970960E-1
3.740011459E0,0.000000000E0,-8.810282707E0,3.375679255E-1
3.742441875E0,-2.825036645E-1,-9.317831993E0,3.639029860E-1
3.744873125E0,-6.081010699E-1,-9.839746475E0,3.303856254E-1
3.747304323E0,-9.145457745E-1,-1.030659485E1,3.040505350E-1
3.749734688E0,-1.194655299E0,-1.079977894E1,3.375679255E-1
3.752165104E0,-1.450823903E0,-1.130493355E1,3.758735061E-1
3.754596354E0,-1.759662628E0,-1.177896595E1,3.830558062E-1
3.757027552E0,-2.032589912E0,-1.220272064E1,3.423561156E-1
3.759457917E0,-2.343822718E0,-1.264084053E1,3.447502255E-1
3.761888334E0,-2.592808962E0,-1.294968033E1,3.423561156E-1
3.764319584E0,-2.815460205E0,-1.329203606E1,2.585626841E-1
3.766750782E0,-2.978258848E0,-1.350511074E1,2.178629786E-1
3.769181198E0,-3.148239851E0,-1.357932758E1,1.819514930E-1
3.771611615E0,-3.244003773E0,-1.359129906E1,1.556164175E-1
3.774042813E0,-3.354132175E0,-1.351708221E1,1.436459273E-1
3.776474011E0,-3.315826654E0,-1.329203606E1,7.182296365E-2
3.778904427E0,-3.210486412E0,-1.299038029E1,5.027607456E-2
3.781334844E0,-3.174575090E0,-1.267914677E1,2.633508667E-2
3.783766042E0,-3.026140690E0,-1.230566788E1,-0.000000000E0
3.786197240E0,-2.848977566E0,-1.188669968E1,1.915278845E-2
3.788627657E0,-2.724484205E0,-1.137196922E1,6.464067101E-2
3.791058073E0,-2.511409521E0,-1.088596725E1,1.532223076E-1
3.793489271E0,-2.269605398E0,-1.041672421E1,2.250452787E-1
3.795920469E0,-2.003860712E0,-1.007915592E1,3.519325256E-1
3.798350886E0,-1.862608910E0,-9.842140198E0,4.883961678E-1
3.800781302E0,-1.699810147E0,-9.657793999E0,6.488007307E-1
3.803212500E0,-1.560952425E0,-9.545271873E0,8.427227736E-1
3.805643750E0,-1.345483541E0,-9.473448753E0,1.036644697E0
3.808074115E0,-1.144379258E0,-9.413596153E0,1.278448701E0
3.810504532E0,-1.019886017E0,-9.375290871E0,1.481947184E0
3.812935729E0,-8.211758733E-1,-9.375290871E0,1.666292787E0
3.815366979E0,-6.416184306E-1,-9.387261391E0,1.872185230E0
3.817797344E0,-4.931843579E-1,-9.418383598E0,2.051742554E0
3.820227761E0,-3.519325256E-1,-9.435143471E0,2.113989353E0
3.822659011E0,-2.298334837E-1,-9.480630875E0,2.197782755E0
3.825090209E0,-9.815804660E-2,-9.483024597E0,2.262423277E0
3.827520573E0,0.000000000E0,-9.478237152E0,2.303122997E0
3.829950990E0,-1.675869152E-2,-9.487812996E0,2.283970356E0
3.832382240E0,2.394098556E-3,-9.459083557E0,2.248058796E0
3.834813438E0,-8.858165890E-2,-9.368107796E0,2.142718554E0
3.837243802E0,-1.436459273E-1,-9.277132988E0,1.975131512E0
3.839674219E0,-3.136269450E-1,-9.205309868E0,1.762056589E0
3.842105469E0,-4.668492377E-1,-9.202916145E0,1.539405465E0
3.844536667E0,-5.865541697E-1,-9.291497231E0,1.280842900E0
3.846967032E0,-6.751358509E-1,-9.387261391E0,1.036644697E0
3.849397448E0,-7.134414315E-1,-9.483024597E0,7.421706319E-1
3.851828698E0,-7.349883318E-1,-9.554847717E0,4.165731966E-1
3.854259896E0,-7.325941920E-1,-9.696100235E0,1.412518322E-1
3.856690261E0,-5.171253681E-1,-9.787075996E0,-2.274393737E-1
3.859120677E0,-1.604046077E-1,-9.693705559E0,-6.942886114E-1
3.861551927E0,7.182296365E-2,-9.636246681E0,-1.130014658E0
3.863983125E0,1.149167418E-1,-9.631459236E0,-1.448429704E0
3.866413490E0,1.292813420E-1,-9.708069801E0,-1.651928067E0
3.868843907E0,1.699810177E-1,-9.837351799E0,-1.874579430E0
3.871275157E0,2.418039739E-1,-9.980998039E0,-2.080471754E0
3.873706354E0,2.370157838E-1,-1.003845596E1,-2.224117756E0
3.876136771E0,2.011042982E-1,-1.013422012E1,-2.346216679E0
3.878567188E0,1.651928127E-1,-1.016055489E1,-2.410857439E0
3.880998386E0,1.149167418E-1,-1.022040844E1,-2.449162960E0
3.883429584E0,8.858165890E-2,-1.022998428E1,-2.497045040E0
3.885860000E0,1.149167418E-1,-1.022998428E1,-2.542532682E0
3.888290417E0,1.340695322E-1,-1.027547169E1,-2.686178684E0
3.890721615E0,1.292813420E-1,-1.028744221E1,-2.748425245E0
3.893152813E0,2.872918546E-2,-1.019167805E1,-2.801095486E0
3.895583229E0,3.351738304E-2,-1.016294861E1,-2.700543404E0
3.898013646E0,1.508282125E-1,-1.035208321E1,-2.583232403E0
3.900444844E0,2.681390643E-1,-1.052445793E1,-2.439586401E0
3.902876042E0,3.184151351E-1,-1.062500954E1,-2.255240917E0
3.905306459E0,2.633508742E-1,-1.073274517E1,-2.080471754E0
3.907736875E0,2.513803840E-1,-1.076386833E1,-1.848244309E0
3.910168073E0,3.064446151E-1,-1.064895058E1,-1.647140026E0
3.912599271E0,2.609567642E-1,-1.064176941E1,-1.434065104E0
3.915029688E0,2.058925033E-1,-1.060585690E1,-1.199443460E0
3.917460104E0,1.532223076E-1,-1.057234001E1,-9.145457745E-1
3.919891302E0,1.771633178E-1,-1.056994629E1,-6.895004511E-1
3.922322552E0,2.178629786E-1,-1.053403378E1,-4.692433476E-1
3.924752917E0,2.250452787E-1,-1.047418213E1,-2.872918546E-1
3.927183334E0,2.226511836E-1,-1.041672421E1,-1.508282125E-1
3.929614532E0,2.250452787E-1,-1.037123585E1,2.394098788E-2
3.932045729E0,2.848977447E-1,-1.028265381E1,1.627987176E-1
3.934476146E0,3.399620354E-1,-1.018928432E1,2.992623448E-1
3.936906563E0,4.285436869E-1,-1.010309696E1,4.093908668E-1
3.939337761E0,5.027607679E-1,-1.012703800E1,5.338839889E-1
3.941769011E0,6.488007307E-1,-1.012224960E1,6.966827512E-1
3.944199375E0,8.187817335E-1,-1.012224960E1,8.163877130E-1
3.946629792E0,9.169397950E-1,-1.016534328E1,1.024674296E0
3.949061042E0,1.084526777E0,-1.019407177E1,1.201837659E0
3.951492240E0,1.235355020E0,-1.026110744E1,1.448429704E0
3.953922604E0,1.450823903E0,-1.026110744E1,1.580105066E0
3.956353021E0,1.673475027E0,-1.023237801E1,1.697415948E0
3.958784271E0,1.867396951E0,-1.018688965E1,1.742903829E0
3.961215469E0,1.979919672E0,-1.014618969E1,1.692627907E0
3.963645834E0,2.085259914E0,-1.010788536E1,1.517858624E0
3.966076250E0,2.135535955E0,-1.011027908E1,1.201837659E0
3.968507500E0,2.164265156E0,-1.003366756E1,7.756879926E-1
3.970938698E0,2.130748034E0,-9.992967606E0,3.208092153E-1
3.973369063E0,2.142718554E0,-9.966632843E0,-1.436459273E-1
3.975799479E0,2.135535955E0,-9.887627602E0,-5.410662889E-1
3.978230729E0,2.054136753E0,-9.724828720E0,-8.810282946E-1
3.980661927E0,2.042166233E0,-9.688918114E0,-1.189867139E0
3.983092292E0,1.989495993E0,-9.660187721E0,-1.228172660E0
3.985522709E0,1.958372712E0,-9.585970879E0,-1.328724742E0
3.987953959E0,2.023013592E0,-9.471055031E0,-1.417306542E0
3.990385157E0,2.066107273E0,-9.332197189E0,-1.474764824E0
3.992815521E0,2.068501472E0,-9.224461555E0,-1.508282304E0
3.995245938E0,1.845850110E0,-9.167003632E0,-1.481947184E0
3.997677188E0,1.616016626E0,-9.066452026E0,-1.381394982E0
4.000108386E0,1.563346505E0,-8.973081589E0,-1.288025141E0
4.002538750E0,1.587287545E0,-8.949140549E0,-1.122832298E0
4.004969167E0,1.529829144E0,-8.906046867E0,-1.086920857E0
4.007400417E0,1.436459303E0,-8.834223747E0,-1.000733256E0
4.009831615E0,1.326330781E0,-8.831830025E0,-9.696099758E-1
4.012261979E0,1.278448701E0,-8.771978378E0,-9.720040560E-1
4.014692396E0,1.194655299E0,-8.731278419E0,-9.480631351E-1
4.017123646E0,1.079738498E0,-8.716914177E0,-9.743981957E-1
4.019554844E0,9.480631351E-1,-8.654666901E0,-1.036644697E0
4.021985209E0,8.139935732E-1,-8.604391098E0,-1.084526777E0
4.024415625E0,6.440125704E-1,-8.537356377E0,-1.151561499E0
4.026846875E0,4.740315676E-1,-8.484685898E0,-1.115650058E0
4.029278073E0,2.657449543E-1,-8.441592216E0,-1.132408738E0
4.031708438E0,9.576395154E-2,-8.420044899E0,-1.101285338E0
4.034138854E0,-1.412518322E-1,-8.379345894E0,-1.106073618E0
4.036570104E0,-3.495384157E-1,-8.353010178E0,-1.079738498E0
4.039001302E0,-5.362781286E-1,-8.290763855E0,-1.070162177E0
4.041431667E0,-7.469587922E-1,-8.230911255E0,-1.005521536E0
4.043862084E0,-1.003127337E0,-8.192605972E0,-9.528512955E-1
4.046293334E0,-1.189867139E0,-8.130359650E0,-8.762401342E-1
4.048724532E0,-1.400547743E0,-8.120782852E0,-7.804762125E-1
4.051154896E0,-1.630381227E0,-8.070507050E0,-6.990768313E-1
4.053585313E0,-1.824303269E0,-8.001077652E0,-5.913423896E-1
4.056016563E0,-1.999072552E0,-7.955589771E0,-5.434604287E-1
4.058447761E0,-2.145112514E0,-7.890949726E0,-5.123371482E-1
4.060878177E0,-2.226511717E0,-7.855038166E0,-5.027607679E-1
4.063308594E0,-2.293546438E0,-7.804761887E0,-5.171253681E-1
4.065739792E0,-2.281575918E0,-7.768850327E0,-5.314899087E-1
4.068170990E0,-2.274393797E0,-7.706604004E0,-5.889483094E-1
4.070601407E0,-2.212147236E0,-7.713786125E0,-6.751358509E-1
4.073031823E0,-2.113989353E0,-7.670692444E0,-7.445647120E-1
4.075463021E0,-2.001466513E0,-7.685057163E0,-8.451168537E-1
4.077894219E0,-1.886549830E0,-7.665904045E0,-9.384866953E-1
4.080324636E0,-1.718962908E0,-7.692239285E0,-1.048615217E0
4.082755052E0,-1.541799664E0,-7.742515564E0,-1.180290580E0
4.085186250E0,-1.364636302E0,-7.778427124E0,-1.276054621E0
4.087617448E0,-1.228172660E0,-7.867008686E0,-1.367030382E0
4.090047865E0,-1.065374017E0,-7.979530811E0,-1.429276943E0
4.092478282E0,-9.408808351E-1,-8.089659691E0,-1.529829144E0
4.094909479E0,-7.924466729E-1,-8.235699654E0,-1.584893346E0
4.097340677E0,-6.296479702E-1,-8.410469055E0,-1.661504507E0
4.099771094E0,-4.955784380E-1,-8.628332138E0,-1.711780667E0
4.102201511E0,-3.639029860E-1,-8.839013100E0,-1.745298028E0
4.104632709E0,-2.489862591E-1,-9.078421593E0,-1.759662628E0
4.107063907E0,-1.053403467E-1,-9.296284676E0,-1.764450788E0
4.109494323E0,-3.830557689E-2,-9.526119232E0,-1.726145267E0
4.111924740E0,8.379345387E-2,-9.736800194E0,-1.726145267E0
4.114355938E0,2.082865983E-1,-9.918750763E0,-1.663898587E0
4.116787136E0,3.088387549E-1,-1.012943172E1,-1.606440306E0
4.119217552E0,3.998144865E-1,-1.033292961E1,-1.508282304E0
4.121647969E0,5.051548481E-1,-1.056037045E1,-1.424488783E0
4.124079167E0,5.865541697E-1,-1.077823257E1,-1.302389741E0
4.126510365E0,6.942886114E-1,-1.099609566E1,-1.182684779E0
4.128940782E0,8.139935732E-1,-1.126423454E1,-1.046221137E0
4.131371198E0,9.025752544E-1,-1.149406815E1,-9.145457745E-1
4.133802396E0,1.041432977E0,-1.164250183E1,-7.182296515E-1
4.136233646E0,1.168320298E0,-1.185797119E1,-5.697954893E-1
4.138664011E0,1.343089342E0,-1.205189323E1,-4.285436869E-1
4.141094427E0,1.458006144E0,-1.231285000E1,-3.232033551E-1
4.143525625E0,1.613622546E0,-1.250198364E1,-1.604046077E-1
4.145956823E0,1.752480268E0,-1.266957092E1,2.154688910E-2
4.148387240E0,1.855426550E0,-1.283476257E1,1.987102032E-1
4.150817657E0,1.960766912E0,-1.294489193E1,4.357259572E-1
4.153248854E0,2.056530952E0,-1.305023193E1,6.775299311E-1
4.155680104E0,2.061319113E0,-1.306699085E1,9.791863561E-1
4.158110469E0,2.092442274E0,-1.304065609E1,1.311966181E0
4.160540886E0,2.075683594E0,-1.295446777E1,1.702204227E0
4.162972084E0,2.011043072E0,-1.281082153E1,2.082865953E0
4.165403334E0,1.944008112E0,-1.262647724E1,2.525774240E0
4.167833698E0,1.865002871E0,-1.237509632E1,2.947135448E0
4.170264115E0,1.742903829E0,-1.212371635E1,3.440320015E0
4.172695313E0,1.582499266E0,-1.192500591E1,3.899986744E0
4.175126563E0,1.374212623E0,-1.165447330E1,4.350077629E0
4.177556927E0,1.163532019E0,-1.139830399E1,4.797773838E0
4.179987344E0,8.762401342E-1,-1.112298298E1,5.202376366E0
4.182418542E0,6.033128500E-1,-1.087160206E1,5.539944649E0
4.184849792E0,3.232033551E-1,-1.063219261E1,5.803295612E0
4.187280157E0,1.268872321E-1,-1.038081169E1,5.958911896E0
4.189710573E0,-8.139935881E-2,-1.014858532E1,5.973276615E0
4.192141771E0,-2.513803840E-1,-9.923539162E0,5.891877174E0
4.194573021E0,-3.854499161E-1,-9.717646599E0,5.702743053E0
4.197003386E0,-4.979725182E-1,-9.516543388E0,5.389116287E0
4.199433802E0,-5.171253681E-1,-9.375290871E0,4.991695881E0
4.201865000E0,-4.979725182E-1,-9.257980347E0,4.532029152E0
4.204296250E0,-4.548787475E-1,-9.159822464E0,4.022086143E0
4.206726615E0,-3.423561156E-1,-9.116727829E0,3.442713976E0
4.209157032E0,-2.441980839E-1,-9.056876183E0,2.808277845E0
4.211588229E0,-1.460400373E-1,-9.085604668E0,2.219329596E0
4.214019479E0,-5.985246971E-2,-9.078421593E0,1.613622546E0
4.216449844E0,4.788197577E-2,-9.059269905E0,1.003127337E0
4.218880261E0,1.484341323E-1,-9.076027870E0,4.500905573E-1
4.221311459E0,2.465921789E-1,-9.102362633E0,-7.661115378E-2
4.223742709E0,3.160210252E-1,-9.095181465E0,-5.697954893E-1
4.226173073E0,3.686912060E-1,-9.090393066E0,-9.911568761E-1
4.228603490E0,4.117850065E-1,-9.102362633E0,-1.402941823E0
4.231034740E0,4.836079478E-1,-9.111940384E0,-1.800362229E0
4.233465886E0,5.650073290E-1,-9.135881424E0,-2.142718554E0
4.235896302E0,6.296479702E-1,-9.181368828E0,-2.487468481E0
4.238326719E0,6.535889506E-1,-9.217280388E0,-2.765183926E0
4.240757917E0,7.038650513E-1,-9.238826752E0,-3.047687769E0
4.243189167E0,7.469587922E-1,-9.298680305E0,-3.318220854E0
4.245619532E0,7.397764921E-1,-9.370502472E0,-3.507354736E0
4.248049948E0,7.397764921E-1,-9.447113991E0,-3.710853100E0
4.250481146E0,7.349883318E-1,-9.473448753E0,-3.878439903E0
4.252912396E0,6.942886114E-1,-9.523724556E0,-3.986174583E0
4.255342761E0,6.320420504E-1,-9.600336075E0,-4.055603027E0
4.257773177E0,5.841601491E-1,-9.643429756E0,-4.096302986E0
4.260204375E0,5.267017484E-1,-9.679341316E0,-4.127426147E0
4.262635625E0,4.740315676E-1,-9.712859154E0,-4.122638226E0
4.265065990E0,3.950262666E-1,-9.732010841E0,-4.057997704E0
4.267496407E0,3.423561156E-1,-9.782286644E0,-3.964627504E0
4.269927657E0,2.729272544E-1,-9.767923355E0,-3.864075422E0
4.272358854E0,1.915279031E-1,-9.743982315E0,-3.713247299E0
4.274789219E0,8.379345387E-2,-9.717646599E0,-3.524113178E0
4.277219636E0,-5.267017335E-2,-9.698493958E0,-3.318220854E0
4.279650834E0,-1.891337931E-1,-9.669765472E0,-3.102751970E0
4.282082084E0,-3.232033551E-1,-9.626670837E0,-2.848977566E0
4.284512448E0,-4.572728872E-1,-9.609911919E0,-2.590414762E0
4.286942865E0,-5.650073290E-1,-9.571606636E0,-2.343822718E0
4.289374063E0,-7.110472918E-1,-9.578788757E0,-2.044560432E0
4.291805313E0,-8.163877130E-1,-9.557242393E0,-1.800362229E0
4.294235677E0,-9.552453756E-1,-9.538088799E0,-1.548981905E0
4.296666094E0,-1.058191657E0,-9.566819191E0,-1.276054621E0
4.299097292E0,-1.139590979E0,-9.566819191E0,-1.039038897E0
4.301528542E0,-1.204231620E0,-9.571606636E0,-7.445647120E-1
4.303958907E0,-1.288025141E0,-9.588364601E0,-4.836079478E-1
4.306389323E0,-1.345483541E0,-9.600336075E0,-1.795574129E-1
4.308820521E0,-1.410124183E0,-9.597942352E0,7.900525630E-2
4.311251771E0,-1.412518263E0,-9.653005600E0,3.471443057E-1
4.313682136E0,-1.405336022E0,-9.672159195E0,6.152833700E-1
4.316112552E0,-1.379000902E0,-9.696100235E0,8.690578938E-1
4.318543750E0,-1.321542501E0,-9.741587639E0,1.120438218E0
4.320975000E0,-1.237748981E0,-9.772710800E0,1.335907102E0
4.323405365E0,-1.161137819E0,-9.815805435E0,1.532223225E0
4.325835782E0,-1.017491937E0,-9.858899117E0,1.730933428E0
4.328266979E0,-8.762401342E-1,-9.923539162E0,1.848244309E0
4.330698229E0,-7.038650513E-1,-9.947480202E0,2.030195713E0
4.333128594E0,-5.434604287E-1,-1.001451492E1,2.154688835E0
4.335559011E0,-3.351738155E-1,-1.007915592E1,2.260029316E0
4.337990209E0,-1.292813420E-1,-1.012464428E1,2.293546438E0
4.340421407E0,5.267017335E-2,-1.017970753E1,2.341428518E0
4.342851823E0,2.729272544E-1,-1.023716640E1,2.386916399E0
4.345282240E0,4.524846673E-1,-1.026828957E1,2.336640596E0
4.347713438E0,6.559830904E-1,-1.029462528E1,2.307911158E0
4.350144636E0,8.331463933E-1,-1.030659485E1,2.202570677E0
4.352575052E0,1.003127337E0,-1.032335377E1,2.102018833E0
4.355005469E0,1.144379258E0,-1.033532429E1,1.953584671E0
4.357436667E0,1.280842900E0,-1.033532429E1,1.793179989E0
4.359867917E0,1.410124183E0,-1.037123585E1,1.599257946E0
4.362298282E0,1.453217983E0,-1.036405277E1,1.374212623E0
4.364728698E0,1.508282304E0,-1.036644840E1,1.158743739E0
4.367159896E0,1.565740585E0,-1.036884212E1,9.169397950E-1
4.369591146E0,1.630381227E0,-1.040235901E1,6.942886114E-1
4.372021511E0,1.656716347E0,-1.039996529E1,4.524846673E-1
4.374451927E0,1.695021868E0,-1.042390633E1,1.963160932E-1
4.376883125E0,1.716568708E0,-1.045024109E1,-2.394098788E-2
4.379314323E0,1.718962908E0,-1.042390633E1,-2.657449543E-1
4.381744740E0,1.740509748E0,-1.042390633E1,-5.314899087E-1
4.384175157E0,1.740509748E0,-1.040475273E1,-7.373824120E-1
4.386606354E0,1.714174747E0,-1.039757061E1,-9.552453756E-1
4.389037552E0,1.685445547E0,-1.035208321E1,-1.165926099E0
4.391467969E0,1.639957666E0,-1.032335377E1,-1.311966181E0
4.393898386E0,1.620804906E0,-1.030659485E1,-1.496311784E0
4.396329584E0,1.537011385E0,-1.028504753E1,-1.599257946E0
4.398760782E0,1.486735344E0,-1.024434853E1,-1.690233707E0
4.401191198E0,1.414912343E0,-1.020604324E1,-1.776421309E0
4.403621615E0,1.357453942E0,-1.018688965E1,-1.778815389E0
4.406052813E0,1.295207381E0,-1.014379597E1,-1.860214710E0
4.408484011E0,1.256901860E0,-1.011746120E1,-1.841061831E0
4.410914427E0,1.189867139E0,-1.009591389E1,-1.869791150E0
4.413344844E0,1.146773219E0,-1.002888012E1,-1.865002871E0
4.415776042E0,1.074950337E0,-9.990573883E0,-1.833879590E0
4.418207240E0,9.983391762E-1,-9.971421242E0,-1.833879590E0
4.420637657E0,9.743981957E-1,-9.928327560E0,-1.807544470E0
4.423068073E0,8.834224343E-1,-9.875657082E0,-1.778815389E0
4.425499271E0,8.331463933E-1,-9.834958076E0,-1.754874349E0
4.427930469E0,7.804762125E-1,-9.787075996E0,-1.699810147E0
4.430360886E0,7.158355117E-1,-9.741587639E0,-1.618410707E0
4.432791302E0,6.464067101E-1,-9.755951881E0,-1.570528746E0
4.435222500E0,6.033128500E-1,-9.717646599E0,-1.477158904E0
4.437653698E0,5.626131892E-1,-9.710465431E0,-1.395759583E0
4.440084115E0,4.931843579E-1,-9.712859154E0,-1.321542501E0
4.442514532E0,4.644551575E-1,-9.712859154E0,-1.244931340E0
4.444945729E0,4.093908668E-1,-9.729617119E0,-1.144379258E0
4.447376927E0,3.686912060E-1,-9.732010841E0,-1.058191657E0
4.449807344E0,3.399620354E-1,-9.753558159E0,-1.007915616E0
4.452237761E0,2.729272544E-1,-9.775105476E0,-9.480631351E-1
4.454668959E0,2.825036645E-1,-9.789469719E0,-8.786342740E-1
4.457100157E0,2.178629786E-1,-9.825381279E0,-7.972348928E-1
4.459530573E0,1.843456030E-1,-9.834958076E0,-7.325941920E-1
4.461960990E0,1.580105126E-1,-9.851716042E0,-6.799240708E-1
4.464392188E0,1.627987176E-1,-9.882840157E0,-6.104952097E-1
4.466823386E0,1.268872321E-1,-9.916357040E0,-5.602191091E-1
4.469253802E0,1.077344418E-1,-9.882840157E0,-5.123371482E-1
4.471684219E0,1.125226393E-1,-9.897204399E0,-4.764256477E-1
4.474115417E0,1.220990419E-1,-9.897204399E0,-4.453023672E-1
4.476546615E0,1.340695322E-1,-9.899598122E0,-4.453023672E-1
4.478977032E0,1.292813420E-1,-9.899598122E0,-4.141790867E-1
4.481407448E0,1.244931296E-1,-9.897204399E0,-4.141790867E-1
4.483838646E0,1.580105126E-1,-9.913963318E0,-3.806616962E-1
4.486269844E0,1.556164175E-1,-9.957056999E0,-3.974204063E-1
4.488700261E0,1.771633178E-1,-9.945085526E0,-3.950262666E-1
4.491130677E0,1.771633178E-1,-9.961845398E0,-3.878439963E-1
4.493561875E0,1.675869077E-1,-9.959450722E0,-3.806616962E-1
4.495993073E0,1.723751128E-1,-9.988180161E0,-3.591148257E-1
4.498423438E0,1.604046077E-1,-1.000493908E1,-3.662970960E-1
4.500853854E0,1.651928127E-1,-1.000493908E1,-3.375679255E-1
4.503285104E0,1.508282125E-1,-1.000254536E1,-3.375679255E-1
4.505716302E0,1.292813420E-1,-1.000254536E1,-3.423561156E-1
4.508146667E0,1.484341323E-1,-1.000014973E1,-3.375679255E-1
4.510577084E0,1.173108369E-1,-9.985786438E0,-3.232033551E-1
4.513008334E0,1.101285368E-1,-9.992967606E0,-2.872918546E-1
4.515439532E0,1.101285368E-1,-9.997756004E0,-2.992623448E-1
4.517869896E0,8.618755639E-2,-9.980998039E0,-2.848977447E-1
4.520300313E0,6.703476608E-2,-9.983391762E0,-2.537744641E-1
4.522731563E0,3.112328239E-2,-9.997756004E0,-2.561685741E-1
4.525162761E0,1.675869152E-2,-9.973814964E0,-2.489862591E-1
4.527593125E0,2.394098556E-3,-9.997756004E0,-2.274393737E-1
4.530023542E0,-1.436459273E-2,-1.000254536E1,-2.346216738E-1
4.532454792E0,-4.788197577E-2,-9.995362282E0,-1.987102032E-1
4.534885990E0,-5.745837092E-2,-9.971421242E0,-1.867396981E-1
4.537316354E0,-8.379345387E-2,-9.940298080E0,-1.891337931E-1
4.539746771E0,-9.097574651E-2,-9.930722237E0,-1.771633178E-1
4.542178021E0,-7.900525630E-2,-9.916357040E0,-1.795574129E-1
4.544609219E0,-1.005521491E-1,-9.870868683E0,-1.819514930E-1
4.547039584E0,-9.576395154E-2,-9.870868683E0,-1.963160932E-1
4.549470000E0,-1.053403467E-1,-9.822986603E0,-2.394098788E-1
4.551901250E0,-8.379345387E-2,-9.784682274E0,-2.418039739E-1
4.554332448E0,-8.618755639E-2,-9.770317078E0,-2.633508742E-1
4.556762813E0,-1.005521491E-1,-9.741587639E0,-2.968682647E-1
4.559193229E0,-7.661115378E-2,-9.720041275E0,-3.399620354E-1
4.561624479E0,-6.703476608E-2,-9.705676079E0,-3.591148257E-1
4.564055677E0,-6.942886859E-2,-9.698493958E0,-4.117850065E-1
4.566486042E0,-4.548787326E-2,-9.653005600E0,-4.692433476E-1
4.568916459E0,-3.351738304E-2,-9.657793999E0,-5.267017484E-1
4.571347709E0,-2.872918546E-2,-9.662583351E0,-5.674013495E-1
4.573778907E0,-2.394098556E-3,-9.700887680E0,-5.913423896E-1
4.576209271E0,1.197049394E-2,-9.686524391E0,-6.966827512E-1
4.578639688E0,1.915278845E-2,-9.679341316E0,-7.493529320E-1
4.581070938E0,4.548787326E-2,-9.686524391E0,-7.996289730E-1
4.583502136E0,4.788197577E-2,-9.715252876E0,-8.379345536E-1
4.585932500E0,6.224656478E-2,-9.739193916E0,-8.594814539E-1
4.588362917E0,9.336984903E-2,-9.717646599E0,-8.882106543E-1
4.590794167E0,1.125226393E-1,-9.724828720E0,-9.169397950E-1
4.593225365E0,1.173108369E-1,-9.736800194E0,-9.648218155E-1
4.595655729E0,1.556164175E-1,-9.729617119E0,-9.863687158E-1
4.598086146E0,1.412518322E-1,-9.727223396E0,-9.935510159E-1
4.600517344E0,1.675869077E-1,-9.736800194E0,-1.029462457E0
4.602948594E0,2.058925033E-1,-9.732010841E0,-1.058191657E0
4.605378959E0,2.226511836E-1,-9.715252876E0,-1.055797458E0
4.607809375E0,2.394098788E-1,-9.734406471E0,-1.067767978E0
4.610240625E0,2.681390643E-1,-9.743982315E0,-1.053403497E0
4.612671823E0,2.777154744E-1,-9.712859154E0,-1.072556257E0
4.615102188E0,2.585626841E-1,-9.705676079E0,-1.039038897E0
4.617532604E0,2.561685741E-1,-9.717646599E0,-1.058191657E0
4.619963802E0,2.681390643E-1,-9.715252876E0,-1.048615217E0
4.622395000E0,2.729272544E-1,-9.717646599E0,-1.034250736E0
4.624825417E0,2.777154744E-1,-9.748769760E0,-1.010309696E0
4.627255834E0,2.944741547E-1,-9.743982315E0,-9.839745760E-1
4.629687032E0,2.609567642E-1,-9.760741234E0,-9.600335956E-1
4.632118229E0,2.609567642E-1,-9.779892921E0,-9.169397950E-1
4.634548646E0,2.633508742E-1,-9.775105476E0,-9.241221547E-1
4.636979063E0,2.418039739E-1,-9.787075996E0,-8.642696142E-1
4.639410261E0,2.322275788E-1,-9.796651840E0,-8.522991538E-1
4.641841459E0,2.633508742E-1,-9.779892921E0,-8.068112731E-1
4.644271875E0,2.513803840E-1,-9.789469719E0,-7.876585126E-1
4.646702292E0,2.418039739E-1,-9.808623314E0,-7.493529320E-1
4.649133490E0,2.274393737E-1,-9.799045563E0,-7.278059721E-1
4.651564688E0,2.250452787E-1,-9.815805435E0,-7.134414315E-1
4.653995104E0,2.322275788E-1,-9.849322319E0,-6.847122312E-1
4.656425521E0,2.178629786E-1,-9.844533920E0,-6.416184306E-1
4.658856719E0,2.418039739E-1,-9.870868683E0,-6.009188294E-1
4.661287917E0,2.346216738E-1,-9.863686562E0,-5.602191091E-1
4.663718334E0,2.274393737E-1,-9.868474960E0,-5.889483094E-1
4.666148750E0,2.298334837E-1,-9.882840157E0,-5.769777894E-1
4.668579948E0,2.274393737E-1,-9.866081238E0,-5.769777894E-1
4.671011146E0,2.585626841E-1,-9.894809723E0,-5.338839889E-1
4.673441511E0,2.322275788E-1,-9.882840157E0,-5.482486486E-1
4.675871927E0,2.465921789E-1,-9.890022278E0,-5.434604287E-1
4.678303177E0,2.370157838E-1,-9.873263359E0,-5.386722088E-1
4.680734375E0,2.394098788E-1,-9.846927643E0,-5.386722088E-1
4.683164740E0,2.298334837E-1,-9.868474960E0,-5.123371482E-1
4.685595157E0,2.489862591E-1,-9.873263359E0,-5.314899087E-1
4.688026407E0,2.537744641E-1,-9.899598122E0,-5.171253681E-1
4.690457604E0,2.657449543E-1,-9.894809723E0,-5.171253681E-1
4.692887969E0,2.465921789E-1,-9.892416000E0,-5.267017484E-1
4.695318386E0,2.585626841E-1,-9.925932884E0,-5.219135284E-1
4.697749636E0,2.801095545E-1,-9.911568642E0,-4.860020280E-1
4.700180834E0,2.825036645E-1,-9.940298080E0,-4.764256477E-1
4.702611198E0,2.729272544E-1,-9.925932884E0,-4.716374576E-1
4.705041615E0,2.729272544E-1,-9.933115959E0,-4.476964772E-1
4.707472865E0,3.160210252E-1,-9.930722237E0,-4.261495769E-1
4.709904063E0,3.064446151E-1,-9.937904358E0,-4.189672768E-1
4.712334427E0,3.040505350E-1,-9.923539162E0,-4.069967866E-1
4.714764844E0,3.160210252E-1,-9.913963318E0,-4.165731966E-1
4.717196094E0,3.255974352E-1,-9.928327560E0,-3.806616962E-1
4.719627292E0,3.662970960E-1,-9.918750763E0,-3.782675862E-1
4.722057657E0,3.782675862E-1,-9.930722237E0,-3.495384157E-1
4.724488073E0,3.806616962E-1,-9.887627602E0,-3.471443057E-1
4.726919323E0,3.734793961E-1,-9.897204399E0,-3.255974352E-1
4.729350521E0,3.782675862E-1,-9.866081238E0,-3.136269450E-1
4.731780886E0,3.710853159E-1,-9.899598122E0,-3.279915452E-1
4.734211302E0,3.782675862E-1,-9.887627602E0,-3.303856254E-1
4.736642552E0,3.950262666E-1,-9.930722237E0,-3.375679255E-1
4.739073750E0,3.758735061E-1,-9.916357040E0,-3.686912060E-1
4.741504115E0,3.399620354E-1,-9.942691803E0,-3.639029860E-1
4.743934532E0,3.160210252E-1,-9.961845398E0,-3.567207158E-1
4.746365729E0,2.872918546E-1,-9.952267647E0,-3.615089059E-1
4.748796979E0,2.633508742E-1,-9.988180161E0,-3.710853159E-1
4.751227344E0,2.394098788E-1,-1.001930332E1,-3.878439963E-1
4.753657761E0,2.346216738E-1,-1.002648640E1,-3.974204063E-1
4.756088959E0,2.394098788E-1,-1.001690865E1,-4.046026766E-1
4.758520209E0,2.465921789E-1,-1.001930332E1,-3.998144865E-1
4.760950573E0,2.681390643E-1,-1.001212120E1,-4.093908668E-1
4.763380990E0,2.370157838E-1,-1.000733280E1,-3.878439963E-1
4.765812188E0,2.872918546E-1,-1.001451492E1,-4.046026766E-1
4.768243386E0,2.657449543E-1,-9.988180161E0,-3.950262666E-1
4.770673802E0,2.753213346E-1,-1.002409077E1,-3.686912060E-1
4.773104219E0,2.585626841E-1,-1.001690865E1,-3.543266356E-1
4.775535417E0,2.944741547E-1,-1.000014973E1,-3.303856254E-1
4.777966615E0,2.633508742E-1,-1.001451492E1,-3.160210252E-1
4.780397032E0,3.016564250E-1,-9.997756004E0,-3.232033551E-1
4.782827448E0,2.729272544E-1,-9.971421242E0,-3.112328351E-1
4.785258646E0,2.992623448E-1,-9.985786438E0,-3.423561156E-1
4.787689844E0,3.136269450E-1,-9.980998039E0,-3.495384157E-1
4.790120261E0,3.279915452E-1,-9.973814964E0,-3.471443057E-1
4.792550677E0,3.088387549E-1,-1.000493908E1,-3.543266356E-1
4.794981875E0,3.208092153E-1,-9.973814964E0,-3.471443057E-1
4.797413073E0,3.423561156E-1,-9.990573883E0,-3.447502255E-1
4.799843490E0,3.351738155E-1,-9.961845398E0,-3.471443057E-1
4.802273907E0,3.495384157E-1,-9.945085526E0,-3.926321864E-1
4.804705104E0,3.351738155E-1,-9.957056999E0,-3.902381063E-1
4.807136302E0,3.399620354E-1,-9.921145439E0,-3.830558062E-1
4.809566719E0,3.279915452E-1,-9.921145439E0,-3.974204063E-1
4.811997136E0,3.255974352E-1,-9.901991844E0,-4.046026766E-1
4.814428334E0,3.184151351E-1,-9.892416000E0,-4.189672768E-1
4.816859532E0,3.543266356E-1,-9.887627602E0,-4.237554669E-1
4.819289896E0,3.471443057E-1,-9.873263359E0,-4.716374576E-1
4.821720313E0,3.639029860E-1,-9.885233879E0,-4.692433476E-1
4.824151563E0,3.854499161E-1,-9.875657082E0,-4.836079478E-1
4.826582761E0,3.902381063E-1,-9.882840157E0,-5.530368090E-1
4.829013125E0,3.974204063E-1,-9.856505394E0,-5.290958285E-1
4.831443542E0,3.950262666E-1,-9.890022278E0,-5.865541697E-1
4.833874792E0,3.974204063E-1,-9.858899117E0,-5.841601491E-1
4.836305990E0,3.734793961E-1,-9.878050804E0,-6.176775098E-1
4.838736354E0,3.734793961E-1,-9.873263359E0,-6.416184306E-1
4.841166771E0,3.639029860E-1,-9.856505394E0,-6.799240708E-1
4.843598021E0,3.830558062E-1,-9.863686562E0,-6.775299311E-1
4.846029219E0,3.830558062E-1,-9.849322319E0,-7.158355117E-1
4.848459584E0,3.806616962E-1,-9.858899117E0,-7.661116123E-1
4.850890000E0,4.093908668E-1,-9.849322319E0,-7.637174726E-1
4.853321250E0,4.261495769E-1,-9.839746475E0,-7.900525331E-1
4.855752448E0,4.141790867E-1,-9.842140198E0,-8.211758733E-1
4.858182813E0,4.429082870E-1,-9.801440239E0,-8.618755341E-1
4.860613229E0,4.357259572E-1,-9.791864395E0,-8.403286934E-1
4.863044479E0,4.285436869E-1,-9.758345604E0,-8.570873737E-1
4.865475677E0,4.668492377E-1,-9.770317078E0,-8.906047344E-1
4.867906042E0,4.141790867E-1,-9.755951881E0,-8.762401342E-1
4.870336459E0,4.309377670E-1,-9.760741234E0,-9.001811147E-1
4.872767709E0,4.333318770E-1,-9.743982315E0,-9.097574949E-1
4.875198907E0,4.405141473E-1,-9.722434998E0,-9.360926151E-1
4.877629271E0,4.285436869E-1,-9.705676079E0,-9.648218155E-1
4.880059688E0,4.476964772E-1,-9.698493958E0,-9.696099758E-1
4.882490886E0,4.213613868E-1,-9.681735039E0,-9.336984754E-1
4.884922136E0,4.141790867E-1,-9.664977074E0,-9.552453756E-1
4.887352500E0,3.830558062E-1,-9.653005600E0,-9.552453756E-1
4.889782917E0,3.926321864E-1,-9.669765472E0,-9.217280149E-1
4.892214115E0,3.830558062E-1,-9.650611877E0,-9.217280149E-1
4.894645313E0,3.591148257E-1,-9.638642311E0,-9.073634148E-1
4.897075729E0,3.591148257E-1,-9.657793999E0,-8.882106543E-1
4.899506146E0,3.327797055E-1,-9.648218155E0,-8.929988146E-1
4.901937344E0,3.088387549E-1,-9.662583351E0,-8.977869749E-1
4.904368542E0,3.112328351E-1,-9.676946640E0,-8.570873737E-1
4.906798959E0,3.351738155E-1,-9.698493958E0,-8.738460541E-1
4.909229375E0,3.136269450E-1,-9.696100235E0,-8.834224343E-1
4.911660573E0,3.136269450E-1,-9.722434998E0,-8.977869749E-1
4.914091771E0,3.040505350E-1,-9.739193916E0,-8.786342740E-1
4.916522188E0,3.040505350E-1,-9.748769760E0,-8.977869749E-1
4.918952604E0,3.279915452E-1,-9.777499199E0,-9.241221547E-1
4.921383802E0,3.160210252E-1,-9.791864395E0,-9.193339348E-1
4.923815000E0,2.777154744E-1,-9.854109764E0,-9.193339348E-1
4.926245365E0,2.489862591E-1,-9.863686562E0,-9.097574949E-1
4.928675782E0,2.418039739E-1,-9.892416000E0,-9.121516347E-1
4.931107032E0,2.226511836E-1,-9.940298080E0,-9.049693346E-1
4.933538229E0,1.843456030E-1,-9.959450722E0,-9.121516347E-1
4.935968594E0,1.532223076E-1,-9.935509682E0,-8.738460541E-1
4.938399011E0,1.412518322E-1,-9.980998039E0,-8.618755341E-1
4.940830261E0,1.388577372E-1,-9.992967606E0,-8.187817335E-1
4.943261459E0,1.220990419E-1,-1.000493908E1,-7.876585126E-1
4.945691823E0,1.101285368E-1,-1.000733280E1,-7.948408127E-1
4.948122240E0,5.267017335E-2,-1.003366756E1,-7.325941920E-1
4.950553490E0,5.745837092E-2,-1.002888012E1,-7.062591314E-1
4.952984688E0,4.069967940E-2,-1.003845596E1,-6.416184306E-1
4.955415052E0,-4.788197111E-3,-1.003845596E1,-5.913423896E-1
4.957845469E0,9.576394223E-3,-1.001451492E1,-5.626131892E-1
4.960276719E0,-7.182296365E-3,-9.976208687E0,-5.219135284E-1
4.962707917E0,-2.633508667E-2,-9.959450722E0,-4.764256477E-1
4.965138282E0,-4.788197111E-3,-9.925932884E0,-4.189672768E-1
4.967568698E0,-3.112328239E-2,-9.892416000E0,-4.069967866E-1
4.969999948E0,-1.436459273E-2,-9.878050804E0,-3.662970960E-1
4.972431146E0,1.675869152E-2,-9.825381279E0,-3.351738155E-1
4.974861511E0,7.182296365E-3,-9.832564354E0,-2.968682647E-1
4.977291927E0,1.436459273E-2,-9.806227684E0,-2.944741547E-1
4.979723177E0,1.436459273E-2,-9.777499199E0,-2.705331445E-1
4.982154375E0,2.154688910E-2,-9.763134956E0,-2.705331445E-1
4.984584740E0,4.309377819E-2,-9.736800194E0,-2.609567642E-1
4.987015157E0,3.591148183E-2,-9.717646599E0,-2.705331445E-1
4.989446354E0,3.591148183E-2,-9.751164436E0,-2.609567642E-1
4.991877552E0,3.112328239E-2,-9.748769760E0,-2.896859348E-1
4.994307969E0,5.267017335E-2,-9.777499199E0,-2.992623448E-1
